timestamp,acc_x,acc_y,acc_z,gyro_x,gyro_y,gyro_z
1715850724.7283254,0.0,0.0,0.0,0.0,0.0,0.0
1715850724.7300406,-0.2713759,0.13049479,-0.1358211,-0.2713759,0.13049479,-0.1358211
1715850724.732014,-0.2713759,0.13049479,-0.1358211,-0.2713759,0.13049479,-0.1358211
1715850724.7339087,-0.2713759,0.13049479,-0.1358211,-0.2713759,0.13049479,-0.1358211
1715850724.7357683,-0.2713759,0.13049479,-0.1358211,-0.2713759,0.13049479,-0.1358211
1715850724.7375653,-0.2713759,0.13049479,-0.1358211,-0.2713759,0.13049479,-0.1358211
1715850724.7394876,-0.2713759,0.13049479,-0.1358211,-0.2713759,0.13049479,-0.1358211
1715850724.741578,-0.2713759,0.13049479,-0.1358211,-0.2713759,0.13049479,-0.1358211
1715850724.7433436,-0.2713759,0.13049479,-0.1358211,-0.2713759,0.13049479,-0.1358211
1715850724.7452147,-0.2713759,0.13049479,-0.1358211,-0.2713759,0.13049479,-0.1358211
1715850724.7470322,-0.2713759,0.13049479,-0.1358211,-0.2713759,0.13049479,-0.1358211
1715850724.7488103,-0.2713759,0.13049479,-0.1358211,-0.2713759,0.13049479,-0.1358211
1715850724.750577,-0.2713759,0.13049479,-0.1358211,-0.2713759,0.13049479,-0.1358211
1715850724.7524176,-0.2713759,0.13049479,-0.1358211,-0.2713759,0.13049479,-0.1358211
1715850724.7542002,-0.2713759,0.13049479,-0.1358211,-0.2713759,0.13049479,-0.1358211
1715850724.7559936,-0.2713759,0.13049479,-0.1358211,-0.2713759,0.13049479,-0.1358211
1715850724.7581491,-0.2713759,0.13049479,-0.1358211,-0.2713759,0.13049479,-0.1358211
1715850724.7599282,-0.2713759,0.13049479,-0.1358211,-0.2713759,0.13049479,-0.1358211
1715850724.7617285,-0.2713759,0.13049479,-0.1358211,-0.2713759,0.13049479,-0.1358211
1715850724.7635334,-0.2713759,0.13049479,-0.1358211,-0.2713759,0.13049479,-0.1358211
1715850724.7653334,-0.2713759,0.13049479,-0.1358211,-0.2713759,0.13049479,-0.1358211
1715850724.7670949,-0.2713759,0.13049479,-0.1358211,-0.2713759,0.13049479,-0.1358211
1715850724.7688735,-0.2713759,0.13049479,-0.1358211,-0.2713759,0.13049479,-0.1358211
1715850724.7706277,-0.2713759,0.13049479,-0.1358211,-0.2713759,0.13049479,-0.1358211
1715850724.772435,-0.2713759,0.13049479,-0.1358211,-0.2713759,0.13049479,-0.1358211
1715850724.7742057,-0.2713759,0.13049479,-0.1358211,-0.2713759,0.13049479,-0.1358211
1715850724.7762315,0.36964643,-1.7275912,-0.32637012,0.36964643,-1.7275912,-0.32637012
1715850724.7781098,0.36964643,-1.7275912,-0.32637012,0.36964643,-1.7275912,-0.32637012
1715850724.7799375,0.36964643,-1.7275912,-0.32637012,0.36964643,-1.7275912,-0.32637012
1715850724.7817202,0.36964643,-1.7275912,-0.32637012,0.36964643,-1.7275912,-0.32637012
1715850724.7834067,0.36964643,-1.7275912,-0.32637012,0.36964643,-1.7275912,-0.32637012
1715850724.7851536,0.079894766,-1.5763237,-0.1953427,0.079894766,-1.5763237,-0.1953427
1715850724.7869394,0.079894766,-1.5763237,-0.1953427,0.079894766,-1.5763237,-0.1953427
1715850724.7887127,0.079894766,-1.5763237,-0.1953427,0.079894766,-1.5763237,-0.1953427
1715850724.7905436,0.079894766,-1.5763237,-0.1953427,0.079894766,-1.5763237,-0.1953427
1715850724.7923267,0.079894766,-1.5763237,-0.1953427,0.079894766,-1.5763237,-0.1953427
1715850724.7941716,-0.13635373,-1.2588751,-0.100534245,-0.13635373,-1.2588751,-0.100534245
1715850724.7975183,-0.13635373,-1.2588751,-0.100534245,-0.13635373,-1.2588751,-0.100534245
1715850724.800734,-0.13635373,-1.2588751,-0.100534245,-0.13635373,-1.2588751,-0.100534245
1715850724.8038948,-0.13635373,-1.2588751,-0.100534245,-0.13635373,-1.2588751,-0.100534245
1715850724.807079,-0.13635373,-1.2588751,-0.100534245,-0.13635373,-1.2588751,-0.100534245
1715850724.8102522,-0.13635373,-1.2588751,-0.100534245,-0.13635373,-1.2588751,-0.100534245
1715850724.814391,-0.13635373,-1.2588751,-0.100534245,-0.13635373,-1.2588751,-0.100534245
1715850724.8178558,-0.13635373,-1.2588751,-0.100534245,-0.13635373,-1.2588751,-0.100534245
1715850724.821102,-0.13635373,-1.2588751,-0.100534245,-0.13635373,-1.2588751,-0.100534245
1715850724.8245835,-0.13635373,-1.2588751,-0.100534245,-0.13635373,-1.2588751,-0.100534245
1715850724.8277447,-0.13635373,-1.2588751,-0.100534245,-0.13635373,-1.2588751,-0.100534245
1715850724.8311045,-0.13635373,-1.2588751,-0.100534245,-0.13635373,-1.2588751,-0.100534245
1715850724.834605,-0.13635373,-1.2588751,-0.100534245,-0.13635373,-1.2588751,-0.100534245
1715850724.8379257,-0.13635373,-1.2588751,-0.100534245,-0.13635373,-1.2588751,-0.100534245
1715850724.8411894,-0.13635373,-1.2588751,-0.100534245,-0.13635373,-1.2588751,-0.100534245
1715850724.8443062,-0.13635373,-1.2588751,-0.100534245,-0.13635373,-1.2588751,-0.100534245
1715850724.8476434,-0.13635373,-1.2588751,-0.100534245,-0.13635373,-1.2588751,-0.100534245
1715850724.8511372,-0.13635373,-1.2588751,-0.100534245,-0.13635373,-1.2588751,-0.100534245
1715850724.8544807,-0.13635373,-1.2588751,-0.100534245,-0.13635373,-1.2588751,-0.100534245
1715850724.8577049,-0.13635373,-1.2588751,-0.100534245,-0.13635373,-1.2588751,-0.100534245
1715850724.8609335,-0.13635373,-1.2588751,-0.100534245,-0.13635373,-1.2588751,-0.100534245
1715850724.86427,-0.13635373,-1.2588751,-0.100534245,-0.13635373,-1.2588751,-0.100534245
1715850724.8675566,-0.13635373,-1.2588751,-0.100534245,-0.13635373,-1.2588751,-0.100534245
1715850724.8711958,-0.13635373,-1.2588751,-0.100534245,-0.13635373,-1.2588751,-0.100534245
1715850724.8744972,-0.13635373,-1.2588751,-0.100534245,-0.13635373,-1.2588751,-0.100534245
1715850724.8776724,-0.13635373,-1.2588751,-0.100534245,-0.13635373,-1.2588751,-0.100534245
1715850724.882025,-0.13635373,-1.2588751,-0.100534245,-0.13635373,-1.2588751,-0.100534245
1715850724.8853276,-0.13635373,-1.2588751,-0.100534245,-0.13635373,-1.2588751,-0.100534245
1715850724.8879368,-0.13635373,-1.2588751,-0.100534245,-0.13635373,-1.2588751,-0.100534245
1715850724.8906791,-0.13635373,-1.2588751,-0.100534245,-0.13635373,-1.2588751,-0.100534245
1715850724.8930542,-0.13635373,-1.2588751,-0.100534245,-0.13635373,-1.2588751,-0.100534245
1715850724.895346,-0.13635373,-1.2588751,-0.100534245,-0.13635373,-1.2588751,-0.100534245
1715850724.89789,-0.13635373,-1.2588751,-0.100534245,-0.13635373,-1.2588751,-0.100534245
1715850724.900675,-0.13635373,-1.2588751,-0.100534245,-0.13635373,-1.2588751,-0.100534245
1715850724.9028075,-0.13635373,-1.2588751,-0.100534245,-0.13635373,-1.2588751,-0.100534245
1715850724.904901,-0.13635373,-1.2588751,-0.100534245,-0.13635373,-1.2588751,-0.100534245
1715850724.906978,-0.13635373,-1.2588751,-0.100534245,-0.13635373,-1.2588751,-0.100534245
1715850724.9090266,-0.13635373,-1.2588751,-0.100534245,-0.13635373,-1.2588751,-0.100534245
1715850724.9109175,-0.13635373,-1.2588751,-0.100534245,-0.13635373,-1.2588751,-0.100534245
1715850724.9128945,-0.13635373,-1.2588751,-0.100534245,-0.13635373,-1.2588751,-0.100534245
1715850724.9148347,-0.13635373,-1.2588751,-0.100534245,-0.13635373,-1.2588751,-0.100534245
1715850724.9168339,-0.13635373,-1.2588751,-0.100534245,-0.13635373,-1.2588751,-0.100534245
1715850724.9187799,-0.13635373,-1.2588751,-0.100534245,-0.13635373,-1.2588751,-0.100534245
1715850724.92079,-0.13635373,-1.2588751,-0.100534245,-0.13635373,-1.2588751,-0.100534245
1715850724.9228396,-0.44741067,0.09081372,0.10186583,-0.44741067,0.09081372,0.10186583
1715850724.924912,-0.44741067,0.09081372,0.10186583,-0.44741067,0.09081372,0.10186583
1715850724.9268289,-0.44741067,0.09081372,0.10186583,-0.44741067,0.09081372,0.10186583
1715850724.9288309,-0.44741067,0.09081372,0.10186583,-0.44741067,0.09081372,0.10186583
1715850724.9308457,-0.44741067,0.09081372,0.10186583,-0.44741067,0.09081372,0.10186583
1715850724.932896,-0.44741067,0.09081372,0.10186583,-0.44741067,0.09081372,0.10186583
1715850724.934918,-0.44741067,0.09081372,0.10186583,-0.44741067,0.09081372,0.10186583
1715850724.9368289,-0.44741067,0.09081372,0.10186583,-0.44741067,0.09081372,0.10186583
1715850724.9388564,-0.44741067,0.09081372,0.10186583,-0.44741067,0.09081372,0.10186583
1715850724.9422684,-0.44741067,0.09081372,0.10186583,-0.44741067,0.09081372,0.10186583
1715850724.9455128,-0.44741067,0.09081372,0.10186583,-0.44741067,0.09081372,0.10186583
1715850724.9487476,-0.44741067,0.09081372,0.10186583,-0.44741067,0.09081372,0.10186583
1715850724.9519606,-0.44741067,0.09081372,0.10186583,-0.44741067,0.09081372,0.10186583
1715850724.9551988,-0.44741067,0.09081372,0.10186583,-0.44741067,0.09081372,0.10186583
1715850724.9588876,-0.067111604,-0.037017908,0.17323849,-0.067111604,-0.037017908,0.17323849
1715850724.9626176,-0.067111604,-0.037017908,0.17323849,-0.067111604,-0.037017908,0.17323849
1715850724.9661891,-0.029827379,-0.13182636,0.1700427,-0.029827379,-0.13182636,0.1700427
1715850724.9694083,-0.029827379,-0.13182636,0.1700427,-0.029827379,-0.13182636,0.1700427
1715850724.9728358,-0.029827379,-0.13182636,0.1700427,-0.029827379,-0.13182636,0.1700427
1715850724.9760377,-0.029827379,-0.13182636,0.1700427,-0.029827379,-0.13182636,0.1700427
1715850724.9792554,-0.029827379,-0.13182636,0.1700427,-0.029827379,-0.13182636,0.1700427
1715850724.9831235,0.020240007,-0.30546433,0.16471638,0.020240007,-0.30546433,0.16471638
1715850724.9868326,0.16405058,-0.8114645,0.12104057,0.16405058,-0.8114645,0.12104057
1715850724.9898236,0.16405058,-0.8114645,0.12104057,0.16405058,-0.8114645,0.12104057
1715850724.9929662,0.16405058,-0.8114645,0.12104057,0.16405058,-0.8114645,0.12104057
1715850724.9962687,0.16405058,-0.8114645,0.12104057,0.16405058,-0.8114645,0.12104057
1715850724.9996386,0.16405058,-0.8114645,0.12104057,0.16405058,-0.8114645,0.12104057
1715850725.0032873,0.16405058,-0.8114645,0.12104057,0.16405058,-0.8114645,0.12104057
1715850725.0063608,0.16405058,-0.8114645,0.12104057,0.16405058,-0.8114645,0.12104057
1715850725.0100455,0.16405058,-0.8114645,0.12104057,0.16405058,-0.8114645,0.12104057
1715850725.0144806,0.16405058,-0.8114645,0.12104057,0.16405058,-0.8114645,0.12104057
1715850725.0181966,0.16405058,-0.8114645,0.12104057,0.16405058,-0.8114645,0.12104057
1715850725.021459,0.16405058,-0.8114645,0.12104057,0.16405058,-0.8114645,0.12104057
1715850725.0244803,0.16405058,-0.8114645,0.12104057,0.16405058,-0.8114645,0.12104057
1715850725.0274742,0.16405058,-0.8114645,0.12104057,0.16405058,-0.8114645,0.12104057
1715850725.0305784,0.16405058,-0.8114645,0.12104057,0.16405058,-0.8114645,0.12104057
1715850725.0345533,0.16405058,-0.8114645,0.12104057,0.16405058,-0.8114645,0.12104057
1715850725.0376532,0.16405058,-0.8114645,0.12104057,0.16405058,-0.8114645,0.12104057
1715850725.040649,0.16405058,-0.8114645,0.12104057,0.16405058,-0.8114645,0.12104057
1715850725.0436401,0.16405058,-0.8114645,0.12104057,0.16405058,-0.8114645,0.12104057
1715850725.0467894,0.16405058,-0.8114645,0.12104057,0.16405058,-0.8114645,0.12104057
1715850725.0498664,0.16405058,-0.8114645,0.12104057,0.16405058,-0.8114645,0.12104057
1715850725.0523617,0.16405058,-0.8114645,0.12104057,0.16405058,-0.8114645,0.12104057
1715850725.0550034,0.16405058,-0.8114645,0.12104057,0.16405058,-0.8114645,0.12104057
1715850725.057378,0.16405058,-0.8114645,0.12104057,0.16405058,-0.8114645,0.12104057
1715850725.059596,0.16405058,-0.8114645,0.12104057,0.16405058,-0.8114645,0.12104057
1715850725.0618663,0.16405058,-0.8114645,0.12104057,0.16405058,-0.8114645,0.12104057
1715850725.0641322,0.16405058,-0.8114645,0.12104057,0.16405058,-0.8114645,0.12104057
1715850725.0663514,0.16405058,-0.8114645,0.12104057,0.16405058,-0.8114645,0.12104057
1715850725.0686224,0.16405058,-0.8114645,0.12104057,0.16405058,-0.8114645,0.12104057
1715850725.0708387,0.16405058,-0.8114645,0.12104057,0.16405058,-0.8114645,0.12104057
1715850725.0733373,0.16405058,-0.8114645,0.12104057,0.16405058,-0.8114645,0.12104057
1715850725.0756462,0.16405058,-0.8114645,0.12104057,0.16405058,-0.8114645,0.12104057
1715850725.0778909,0.16405058,-0.8114645,0.12104057,0.16405058,-0.8114645,0.12104057
1715850725.0801704,0.16405058,-0.8114645,0.12104057,0.16405058,-0.8114645,0.12104057
1715850725.0824244,0.16405058,-0.8114645,0.12104057,0.16405058,-0.8114645,0.12104057
1715850725.0846102,0.16405058,-0.8114645,0.12104057,0.16405058,-0.8114645,0.12104057
1715850725.0878065,0.16405058,-0.8114645,0.12104057,0.16405058,-0.8114645,0.12104057
1715850725.0911918,0.16405058,-0.8114645,0.12104057,0.16405058,-0.8114645,0.12104057
1715850725.0934787,0.16405058,-0.8114645,0.12104057,0.16405058,-0.8114645,0.12104057
1715850725.0956597,0.16405058,-0.8114645,0.12104057,0.16405058,-0.8114645,0.12104057
1715850725.0981536,0.16405058,-0.8114645,0.12104057,0.16405058,-0.8114645,0.12104057
1715850725.100197,0.16405058,-0.8114645,0.12104057,0.16405058,-0.8114645,0.12104057
1715850725.1024137,0.16405058,-0.8114645,0.12104057,0.16405058,-0.8114645,0.12104057
1715850725.1042607,0.16405058,-0.8114645,0.12104057,0.16405058,-0.8114645,0.12104057
1715850725.1061754,0.16405058,-0.8114645,0.12104057,0.16405058,-0.8114645,0.12104057
1715850725.1080258,0.16405058,-0.8114645,0.12104057,0.16405058,-0.8114645,0.12104057
1715850725.1098263,0.16405058,-0.8114645,0.12104057,0.16405058,-0.8114645,0.12104057
1715850725.111579,0.16405058,-0.8114645,0.12104057,0.16405058,-0.8114645,0.12104057
1715850725.113365,0.16405058,-0.8114645,0.12104057,0.16405058,-0.8114645,0.12104057
1715850725.1151521,0.16405058,-0.8114645,0.12104057,0.16405058,-0.8114645,0.12104057
1715850725.1170113,0.16405058,-0.8114645,0.12104057,0.16405058,-0.8114645,0.12104057
1715850725.1189363,0.16405058,-0.8114645,0.12104057,0.16405058,-0.8114645,0.12104057
1715850725.1207287,0.16405058,-0.8114645,0.12104057,0.16405058,-0.8114645,0.12104057
1715850725.1224902,0.16405058,-0.8114645,0.12104057,0.16405058,-0.8114645,0.12104057
1715850725.1244397,0.16405058,-0.8114645,0.12104057,0.16405058,-0.8114645,0.12104057
1715850725.1263056,0.16405058,-0.8114645,0.12104057,0.16405058,-0.8114645,0.12104057
1715850725.1281137,0.5912213,-0.32250854,0.47470805,0.5912213,-0.32250854,0.47470805
1715850725.1301062,0.9321056,-1.4974942,0.7399587,0.9321056,-1.4974942,0.7399587
1715850725.1318634,0.9321056,-1.4974942,0.7399587,0.9321056,-1.4974942,0.7399587
1715850725.1336253,0.9321056,-1.4974942,0.7399587,0.9321056,-1.4974942,0.7399587
1715850725.1352906,0.9321056,-1.4974942,0.7399587,0.9321056,-1.4974942,0.7399587
1715850725.1370902,0.9321056,-1.4974942,0.7399587,0.9321056,-1.4974942,0.7399587
1715850725.1388514,0.9321056,-1.4974942,0.7399587,0.9321056,-1.4974942,0.7399587
1715850725.140685,0.9321056,-1.4974942,0.7399587,0.9321056,-1.4974942,0.7399587
1715850725.1427226,0.9321056,-1.4974942,0.7399587,0.9321056,-1.4974942,0.7399587
1715850725.144597,0.9321056,-1.4974942,0.7399587,0.9321056,-1.4974942,0.7399587
1715850725.146421,0.9321056,-1.4974942,0.7399587,0.9321056,-1.4974942,0.7399587
1715850725.1482053,0.9321056,-1.4974942,0.7399587,0.9321056,-1.4974942,0.7399587
1715850725.1499968,0.9321056,-1.4974942,0.7399587,0.9321056,-1.4974942,0.7399587
1715850725.1517792,0.9321056,-1.4974942,0.7399587,0.9321056,-1.4974942,0.7399587
1715850725.1535559,0.9321056,-1.4974942,0.7399587,0.9321056,-1.4974942,0.7399587
1715850725.155291,0.9321056,-1.4974942,0.7399587,0.9321056,-1.4974942,0.7399587
1715850725.1571198,0.9321056,-1.4974942,0.7399587,0.9321056,-1.4974942,0.7399587
1715850725.1589158,0.9321056,-1.4974942,0.7399587,0.9321056,-1.4974942,0.7399587
1715850725.1607726,0.9321056,-1.4974942,0.7399587,0.9321056,-1.4974942,0.7399587
1715850725.1626487,3.1489189,-2.8972504,-0.1719069,3.1489189,-2.8972504,-0.1719069
1715850725.1646254,2.9358664,-2.7470484,-0.15592794,2.9358664,-2.7470484,-0.15592794
1715850725.1671047,2.9358664,-2.7470484,-0.15592794,2.9358664,-2.7470484,-0.15592794
1715850725.168928,2.9358664,-2.7470484,-0.15592794,2.9358664,-2.7470484,-0.15592794
1715850725.1706903,2.9358664,-2.7470484,-0.15592794,2.9358664,-2.7470484,-0.15592794
1715850725.172477,2.9358664,-2.7470484,-0.15592794,2.9358664,-2.7470484,-0.15592794
1715850725.17428,2.9358664,-2.7470484,-0.15592794,2.9358664,-2.7470484,-0.15592794
1715850725.177329,2.9358664,-2.7470484,-0.15592794,2.9358664,-2.7470484,-0.15592794
1715850725.1808767,2.9358664,-2.7470484,-0.15592794,2.9358664,-2.7470484,-0.15592794
1715850725.1842859,2.9358664,-2.7470484,-0.15592794,2.9358664,-2.7470484,-0.15592794
1715850725.187896,2.9358664,-2.7470484,-0.15592794,2.9358664,-2.7470484,-0.15592794
1715850725.1910758,2.9358664,-2.7470484,-0.15592794,2.9358664,-2.7470484,-0.15592794
1715850725.1942196,2.9358664,-2.7470484,-0.15592794,2.9358664,-2.7470484,-0.15592794
1715850725.1975682,2.9358664,-2.7470484,-0.15592794,2.9358664,-2.7470484,-0.15592794
1715850725.201088,2.9358664,-2.7470484,-0.15592794,2.9358664,-2.7470484,-0.15592794
1715850725.2043746,2.9358664,-2.7470484,-0.15592794,2.9358664,-2.7470484,-0.15592794
1715850725.2078366,3.014829,-4.250135,-0.40200382,3.014829,-4.250135,-0.40200382
1715850725.2113323,3.7732966,-6.3273993,-0.64701444,3.7732966,-6.3273993,-0.64701444
1715850725.2154324,4.3197765,-7.2627006,-0.35193643,4.3197765,-7.2627006,-0.35193643
1715850725.2191029,4.3197765,-7.2627006,-0.35193643,4.3197765,-7.2627006,-0.35193643
1715850725.2224243,4.3197765,-7.2627006,-0.35193643,4.3197765,-7.2627006,-0.35193643
1715850725.2256107,4.3197765,-7.2627006,-0.35193643,4.3197765,-7.2627006,-0.35193643
1715850725.2289805,4.3197765,-7.2627006,-0.35193643,4.3197765,-7.2627006,-0.35193643
1715850725.2333832,4.3197765,-7.2627006,-0.35193643,4.3197765,-7.2627006,-0.35193643
1715850725.2365088,4.3197765,-7.2627006,-0.35193643,4.3197765,-7.2627006,-0.35193643
1715850725.2392056,4.3197765,-7.2627006,-0.35193643,4.3197765,-7.2627006,-0.35193643
1715850725.2415018,4.3197765,-7.2627006,-0.35193643,4.3197765,-7.2627006,-0.35193643
1715850725.243795,4.3197765,-7.2627006,-0.35193643,4.3197765,-7.2627006,-0.35193643
1715850725.2461755,4.3197765,-7.2627006,-0.35193643,4.3197765,-7.2627006,-0.35193643
1715850725.2484903,4.3197765,-7.2627006,-0.35193643,4.3197765,-7.2627006,-0.35193643
1715850725.2507274,4.3197765,-7.2627006,-0.35193643,4.3197765,-7.2627006,-0.35193643
1715850725.2531135,4.3197765,-7.2627006,-0.35193643,4.3197765,-7.2627006,-0.35193643
1715850725.2554352,4.3197765,-7.2627006,-0.35193643,4.3197765,-7.2627006,-0.35193643
1715850725.2578835,4.3197765,-7.2627006,-0.35193643,4.3197765,-7.2627006,-0.35193643
1715850725.2602081,4.3197765,-7.2627006,-0.35193643,4.3197765,-7.2627006,-0.35193643
1715850725.2625751,4.3197765,-7.2627006,-0.35193643,4.3197765,-7.2627006,-0.35193643
1715850725.2649226,4.3197765,-7.2627006,-0.35193643,4.3197765,-7.2627006,-0.35193643
1715850725.2672002,4.3197765,-7.2627006,-0.35193643,4.3197765,-7.2627006,-0.35193643
1715850725.269585,4.3197765,-7.2627006,-0.35193643,4.3197765,-7.2627006,-0.35193643
1715850725.2718801,4.3197765,-7.2627006,-0.35193643,4.3197765,-7.2627006,-0.35193643
1715850725.2742329,4.3197765,-7.2627006,-0.35193643,4.3197765,-7.2627006,-0.35193643
1715850725.2767065,4.3197765,-7.2627006,-0.35193643,4.3197765,-7.2627006,-0.35193643
1715850725.2791007,4.3197765,-7.2627006,-0.35193643,4.3197765,-7.2627006,-0.35193643
1715850725.2814357,4.3197765,-7.2627006,-0.35193643,4.3197765,-7.2627006,-0.35193643
1715850725.2839012,4.3197765,-7.2627006,-0.35193643,4.3197765,-7.2627006,-0.35193643
1715850725.286359,4.3197765,-7.2627006,-0.35193643,4.3197765,-7.2627006,-0.35193643
1715850725.2887084,4.3197765,-7.2627006,-0.35193643,4.3197765,-7.2627006,-0.35193643
1715850725.2909896,4.3197765,-7.2627006,-0.35193643,4.3197765,-7.2627006,-0.35193643
1715850725.2935102,4.3197765,-7.2627006,-0.35193643,4.3197765,-7.2627006,-0.35193643
1715850725.2959013,4.3197765,-7.2627006,-0.35193643,4.3197765,-7.2627006,-0.35193643
1715850725.2982154,4.3197765,-7.2627006,-0.35193643,4.3197765,-7.2627006,-0.35193643
1715850725.3005214,4.3197765,-7.2627006,-0.35193643,4.3197765,-7.2627006,-0.35193643
1715850725.3028336,4.3197765,-7.2627006,-0.35193643,4.3197765,-7.2627006,-0.35193643
1715850725.3052678,4.3197765,-7.2627006,-0.35193643,4.3197765,-7.2627006,-0.35193643
1715850725.3081267,4.3197765,-7.2627006,-0.35193643,4.3197765,-7.2627006,-0.35193643
1715850725.3106647,4.3197765,-7.2627006,-0.35193643,4.3197765,-7.2627006,-0.35193643
1715850725.3130713,4.3197765,-7.2627006,-0.35193643,4.3197765,-7.2627006,-0.35193643
1715850725.3153794,4.3197765,-7.2627006,-0.35193643,4.3197765,-7.2627006,-0.35193643
1715850725.3176754,4.3197765,-7.2627006,-0.35193643,4.3197765,-7.2627006,-0.35193643
1715850725.319981,4.3197765,-7.2627006,-0.35193643,4.3197765,-7.2627006,-0.35193643
1715850725.322317,4.3197765,-7.2627006,-0.35193643,4.3197765,-7.2627006,-0.35193643
1715850725.3246298,4.3197765,-7.2627006,-0.35193643,4.3197765,-7.2627006,-0.35193643
1715850725.327133,4.3197765,-7.2627006,-0.35193643,4.3197765,-7.2627006,-0.35193643
1715850725.3297431,4.3197765,-7.2627006,-0.35193643,4.3197765,-7.2627006,-0.35193643
1715850725.3324432,5.6853113,-7.875227,1.080843,5.6853113,-7.875227,1.080843
1715850725.3349504,4.81073,-6.881336,0.4203796,4.81073,-6.881336,0.4203796
1715850725.337306,4.81073,-6.881336,0.4203796,4.81073,-6.881336,0.4203796
1715850725.339631,4.81073,-6.881336,0.4203796,4.81073,-6.881336,0.4203796
1715850725.3419042,4.81073,-6.881336,0.4203796,4.81073,-6.881336,0.4203796
1715850725.3441598,4.81073,-6.881336,0.4203796,4.81073,-6.881336,0.4203796
1715850725.346872,4.81073,-6.881336,0.4203796,4.81073,-6.881336,0.4203796
1715850725.3492656,4.81073,-6.881336,0.4203796,4.81073,-6.881336,0.4203796
1715850725.3526917,4.81073,-6.881336,0.4203796,4.81073,-6.881336,0.4203796
1715850725.3558526,4.81073,-6.881336,0.4203796,4.81073,-6.881336,0.4203796
1715850725.359177,4.81073,-6.881336,0.4203796,4.81073,-6.881336,0.4203796
1715850725.3625689,4.81073,-6.881336,0.4203796,4.81073,-6.881336,0.4203796
1715850725.366409,4.81073,-6.881336,0.4203796,4.81073,-6.881336,0.4203796
1715850725.3697739,4.81073,-6.881336,0.4203796,4.81073,-6.881336,0.4203796
1715850725.373011,4.81073,-6.881336,0.4203796,4.81073,-6.881336,0.4203796
1715850725.377943,3.2032473,-3.0421264,1.6976306,3.2032473,-3.0421264,1.6976306
1715850725.3820755,3.6634412,-3.4618402,0.9146619,3.6634412,-3.4618402,0.9146619
1715850725.3859906,3.7529235,-3.6780887,0.85820293,3.7529235,-3.6780887,0.85820293
1715850725.3892787,3.7529235,-3.6780887,0.85820293,3.7529235,-3.6780887,0.85820293
1715850725.3925362,3.7529235,-3.6780887,0.85820293,3.7529235,-3.6780887,0.85820293
1715850725.3975887,3.7529235,-3.6780887,0.85820293,3.7529235,-3.6780887,0.85820293
1715850725.404762,3.7529235,-3.6780887,0.85820293,3.7529235,-3.6780887,0.85820293
1715850725.4087799,3.7529235,-3.6780887,0.85820293,3.7529235,-3.6780887,0.85820293
1715850725.4119718,3.7529235,-3.6780887,0.85820293,3.7529235,-3.6780887,0.85820293
1715850725.4150603,3.7529235,-3.6780887,0.85820293,3.7529235,-3.6780887,0.85820293
1715850725.41777,3.7529235,-3.6780887,0.85820293,3.7529235,-3.6780887,0.85820293
1715850725.4206955,3.8999298,-3.3212254,1.9000306,3.8999298,-3.3212254,1.9000306
1715850725.4232342,3.8999298,-3.3212254,1.9000306,3.8999298,-3.3212254,1.9000306
1715850725.4253995,3.8999298,-3.3212254,1.9000306,3.8999298,-3.3212254,1.9000306
1715850725.4274583,3.8999298,-3.3212254,1.9000306,3.8999298,-3.3212254,1.9000306
1715850725.4294982,3.8999298,-3.3212254,1.9000306,3.8999298,-3.3212254,1.9000306
1715850725.4314241,3.8999298,-3.3212254,1.9000306,3.8999298,-3.3212254,1.9000306
1715850725.433489,3.8999298,-3.3212254,1.9000306,3.8999298,-3.3212254,1.9000306
1715850725.4355688,3.8999298,-3.3212254,1.9000306,3.8999298,-3.3212254,1.9000306
1715850725.4376445,3.8999298,-3.3212254,1.9000306,3.8999298,-3.3212254,1.9000306
1715850725.439541,3.8999298,-3.3212254,1.9000306,3.8999298,-3.3212254,1.9000306
1715850725.4415638,3.8999298,-3.3212254,1.9000306,3.8999298,-3.3212254,1.9000306
1715850725.4432995,3.8999298,-3.3212254,1.9000306,3.8999298,-3.3212254,1.9000306
1715850725.445139,3.8999298,-3.3212254,1.9000306,3.8999298,-3.3212254,1.9000306
1715850725.4469366,3.8999298,-3.3212254,1.9000306,3.8999298,-3.3212254,1.9000306
1715850725.4487243,3.8999298,-3.3212254,1.9000306,3.8999298,-3.3212254,1.9000306
1715850725.4505167,3.8999298,-3.3212254,1.9000306,3.8999298,-3.3212254,1.9000306
1715850725.4523404,3.8999298,-3.3212254,1.9000306,3.8999298,-3.3212254,1.9000306
1715850725.454122,3.8999298,-3.3212254,1.9000306,3.8999298,-3.3212254,1.9000306
1715850725.4558964,3.8999298,-3.3212254,1.9000306,3.8999298,-3.3212254,1.9000306
1715850725.45768,3.8999298,-3.3212254,1.9000306,3.8999298,-3.3212254,1.9000306
1715850725.4597368,3.8999298,-3.3212254,1.9000306,3.8999298,-3.3212254,1.9000306
1715850725.4615633,3.8999298,-3.3212254,1.9000306,3.8999298,-3.3212254,1.9000306
1715850725.4633424,3.8999298,-3.3212254,1.9000306,3.8999298,-3.3212254,1.9000306
1715850725.4651628,3.8999298,-3.3212254,1.9000306,3.8999298,-3.3212254,1.9000306
1715850725.4669323,3.8999298,-3.3212254,1.9000306,3.8999298,-3.3212254,1.9000306
1715850725.4687123,3.8999298,-3.3212254,1.9000306,3.8999298,-3.3212254,1.9000306
1715850725.470479,3.8999298,-3.3212254,1.9000306,3.8999298,-3.3212254,1.9000306
1715850725.472239,3.8999298,-3.3212254,1.9000306,3.8999298,-3.3212254,1.9000306
1715850725.4740787,3.8999298,-3.3212254,1.9000306,3.8999298,-3.3212254,1.9000306
1715850725.475855,3.8999298,-3.3212254,1.9000306,3.8999298,-3.3212254,1.9000306
1715850725.4778898,3.8999298,-3.3212254,1.9000306,3.8999298,-3.3212254,1.9000306
1715850725.4797645,3.8999298,-3.3212254,1.9000306,3.8999298,-3.3212254,1.9000306
1715850725.4815795,3.8999298,-3.3212254,1.9000306,3.8999298,-3.3212254,1.9000306
1715850725.4832892,3.8999298,-3.3212254,1.9000306,3.8999298,-3.3212254,1.9000306
1715850725.485058,3.8999298,-3.3212254,1.9000306,3.8999298,-3.3212254,1.9000306
1715850725.4868336,3.8999298,-3.3212254,1.9000306,3.8999298,-3.3212254,1.9000306
1715850725.4886878,3.8999298,-3.3212254,1.9000306,3.8999298,-3.3212254,1.9000306
1715850725.4909494,3.8999298,-3.3212254,1.9000306,3.8999298,-3.3212254,1.9000306
1715850725.492853,3.8999298,-3.3212254,1.9000306,3.8999298,-3.3212254,1.9000306
1715850725.494546,3.8999298,-3.3212254,1.9000306,3.8999298,-3.3212254,1.9000306
1715850725.496512,3.8999298,-3.3212254,1.9000306,3.8999298,-3.3212254,1.9000306
1715850725.498323,3.8999298,-3.3212254,1.9000306,3.8999298,-3.3212254,1.9000306
1715850725.5001078,3.8999298,-3.3212254,1.9000306,3.8999298,-3.3212254,1.9000306
1715850725.5019672,3.8999298,-3.3212254,1.9000306,3.8999298,-3.3212254,1.9000306
1715850725.5042388,3.8999298,-3.3212254,1.9000306,3.8999298,-3.3212254,1.9000306
1715850725.5061138,3.8999298,-3.3212254,1.9000306,3.8999298,-3.3212254,1.9000306
1715850725.507953,3.8999298,-3.3212254,1.9000306,3.8999298,-3.3212254,1.9000306
1715850725.5097508,3.8999298,-3.3212254,1.9000306,3.8999298,-3.3212254,1.9000306
1715850725.5115225,3.8999298,-3.3212254,1.9000306,3.8999298,-3.3212254,1.9000306
1715850725.5134935,3.8999298,-3.3212254,1.9000306,3.8999298,-3.3212254,1.9000306
1715850725.5152762,3.8999298,-3.3212254,1.9000306,3.8999298,-3.3212254,1.9000306
1715850725.5170498,3.8999298,-3.3212254,1.9000306,3.8999298,-3.3212254,1.9000306
1715850725.5188148,3.8999298,-3.3212254,1.9000306,3.8999298,-3.3212254,1.9000306
1715850725.5206203,3.8999298,-3.3212254,1.9000306,3.8999298,-3.3212254,1.9000306
1715850725.522391,3.8999298,-3.3212254,1.9000306,3.8999298,-3.3212254,1.9000306
1715850725.5242085,3.8999298,-3.3212254,1.9000306,3.8999298,-3.3212254,1.9000306
1715850725.5259836,3.8999298,-3.3212254,1.9000306,3.8999298,-3.3212254,1.9000306
1715850725.5277445,3.8999298,-3.3212254,1.9000306,3.8999298,-3.3212254,1.9000306
1715850725.529872,3.8999298,-3.3212254,1.9000306,3.8999298,-3.3212254,1.9000306
1715850725.5317247,3.8999298,-3.3212254,1.9000306,3.8999298,-3.3212254,1.9000306
1715850725.5335417,3.8999298,-3.3212254,1.9000306,3.8999298,-3.3212254,1.9000306
1715850725.5352898,3.8999298,-3.3212254,1.9000306,3.8999298,-3.3212254,1.9000306
1715850725.5378873,2.8060372,-1.7829849,1.238502,2.8060372,-1.7829849,1.238502
1715850725.5396647,-0.2810964,0.26977798,-1.2488884,-0.2810964,0.26977798,-1.2488884
1715850725.5415003,-0.2810964,0.26977798,-1.2488884,-0.2810964,0.26977798,-1.2488884
1715850725.543253,-0.2810964,0.26977798,-1.2488884,-0.2810964,0.26977798,-1.2488884
1715850725.5450306,-0.3024017,0.0940095,-1.2105389,-0.3024017,0.0940095,-1.2105389
1715850725.5469193,-0.3024017,0.0940095,-1.2105389,-0.3024017,0.0940095,-1.2105389
1715850725.5488148,-0.3024017,0.0940095,-1.2105389,-0.3024017,0.0940095,-1.2105389
1715850725.5505595,-0.3024017,0.0940095,-1.2105389,-0.3024017,0.0940095,-1.2105389
1715850725.552559,-0.32051116,0.22077587,-0.92078716,-0.32051116,0.22077587,-0.92078716
1715850725.5543368,-0.32051116,0.22077587,-0.92078716,-0.32051116,0.22077587,-0.92078716
1715850725.556156,-0.32051116,0.22077587,-0.92078716,-0.32051116,0.22077587,-0.92078716
1715850725.5580297,-0.32051116,0.22077587,-0.92078716,-0.32051116,0.22077587,-0.92078716
1715850725.5598364,-0.32051116,0.22077587,-0.92078716,-0.32051116,0.22077587,-0.92078716
1715850725.5616202,-0.32051116,0.22077587,-0.92078716,-0.32051116,0.22077587,-0.92078716
1715850725.5636716,-0.05632581,-0.121173725,-0.7269092,-0.05632581,-0.121173725,-0.7269092
1715850725.565653,-0.05632581,-0.121173725,-0.7269092,-0.05632581,-0.121173725,-0.7269092
1715850725.5673957,-0.05632581,-0.121173725,-0.7269092,-0.05632581,-0.121173725,-0.7269092
1715850725.5691764,-0.05632581,-0.121173725,-0.7269092,-0.05632581,-0.121173725,-0.7269092
1715850725.5709586,-0.05632581,-0.121173725,-0.7269092,-0.05632581,-0.121173725,-0.7269092
1715850725.572738,-0.05632581,-0.121173725,-0.7269092,-0.05632581,-0.121173725,-0.7269092
1715850725.5745015,-0.05632581,-0.121173725,-0.7269092,-0.05632581,-0.121173725,-0.7269092
1715850725.5762808,-0.05632581,-0.121173725,-0.7269092,-0.05632581,-0.121173725,-0.7269092
1715850725.5780523,-0.05632581,-0.121173725,-0.7269092,-0.05632581,-0.121173725,-0.7269092
1715850725.5798917,-0.05632581,-0.121173725,-0.7269092,-0.05632581,-0.121173725,-0.7269092
1715850725.5819683,-0.05632581,-0.121173725,-0.7269092,-0.05632581,-0.121173725,-0.7269092
1715850725.5838578,-0.05632581,-0.121173725,-0.7269092,-0.05632581,-0.121173725,-0.7269092
1715850725.5856242,-0.05632581,-0.121173725,-0.7269092,-0.05632581,-0.121173725,-0.7269092
1715850725.587296,-0.05632581,-0.121173725,-0.7269092,-0.05632581,-0.121173725,-0.7269092
1715850725.5890663,-0.05632581,-0.121173725,-0.7269092,-0.05632581,-0.121173725,-0.7269092
1715850725.5908363,-0.05632581,-0.121173725,-0.7269092,-0.05632581,-0.121173725,-0.7269092
1715850725.592583,-0.05632581,-0.121173725,-0.7269092,-0.05632581,-0.121173725,-0.7269092
1715850725.5943427,-0.05632581,-0.121173725,-0.7269092,-0.05632581,-0.121173725,-0.7269092
1715850725.596677,-0.05632581,-0.121173725,-0.7269092,-0.05632581,-0.121173725,-0.7269092
1715850725.5985312,-0.05632581,-0.121173725,-0.7269092,-0.05632581,-0.121173725,-0.7269092
1715850725.600876,1.0696577,-0.73263496,-0.5138565,1.0696577,-0.73263496,-0.5138565
1715850725.602808,1.2305125,-0.5834981,-0.6033386,1.2305125,-0.5834981,-0.6033386
1715850725.6046422,1.2305125,-0.5834981,-0.6033386,1.2305125,-0.5834981,-0.6033386
1715850725.6063414,1.2305125,-0.5834981,-0.6033386,1.2305125,-0.5834981,-0.6033386
1715850725.6081123,1.2305125,-0.5834981,-0.6033386,1.2305125,-0.5834981,-0.6033386
1715850725.6098018,1.2305125,-0.5834981,-0.6033386,1.2305125,-0.5834981,-0.6033386
1715850725.611472,1.2305125,-0.5834981,-0.6033386,1.2305125,-0.5834981,-0.6033386
1715850725.6132789,1.2305125,-0.5834981,-0.6033386,1.2305125,-0.5834981,-0.6033386
1715850725.615127,1.2305125,-0.5834981,-0.6033386,1.2305125,-0.5834981,-0.6033386
1715850725.6172378,1.2773842,-0.5206475,-0.6257092,1.2773842,-0.5206475,-0.6257092
1715850725.6194751,1.2773842,-0.5206475,-0.6257092,1.2773842,-0.5206475,-0.6257092
1715850725.6228387,1.2773842,-0.5206475,-0.6257092,1.2773842,-0.5206475,-0.6257092
1715850725.6263022,1.2773842,-0.5206475,-0.6257092,1.2773842,-0.5206475,-0.6257092
1715850725.6299663,1.2773842,-0.5206475,-0.6257092,1.2773842,-0.5206475,-0.6257092
1715850725.6334782,1.2773842,-0.5206475,-0.6257092,1.2773842,-0.5206475,-0.6257092
1715850725.637086,1.2773842,-0.5206475,-0.6257092,1.2773842,-0.5206475,-0.6257092
1715850725.641111,1.2773842,-0.5206475,-0.6257092,1.2773842,-0.5206475,-0.6257092
1715850725.6446562,1.2773842,-0.5206475,-0.6257092,1.2773842,-0.5206475,-0.6257092
1715850725.6481633,1.2773842,-0.5206475,-0.6257092,1.2773842,-0.5206475,-0.6257092
1715850725.6516166,1.2773842,-0.5206475,-0.6257092,1.2773842,-0.5206475,-0.6257092
1715850725.655012,1.2773842,-0.5206475,-0.6257092,1.2773842,-0.5206475,-0.6257092
1715850725.6593194,1.2773842,-0.5206475,-0.6257092,1.2773842,-0.5206475,-0.6257092
1715850725.6622715,1.2773842,-0.5206475,-0.6257092,1.2773842,-0.5206475,-0.6257092
1715850725.66505,1.2773842,-0.5206475,-0.6257092,1.2773842,-0.5206475,-0.6257092
1715850725.6673734,1.2773842,-0.5206475,-0.6257092,1.2773842,-0.5206475,-0.6257092
1715850725.669774,1.2773842,-0.5206475,-0.6257092,1.2773842,-0.5206475,-0.6257092
1715850725.671959,1.2773842,-0.5206475,-0.6257092,1.2773842,-0.5206475,-0.6257092
1715850725.6740973,1.2773842,-0.5206475,-0.6257092,1.2773842,-0.5206475,-0.6257092
1715850725.6762211,1.2773842,-0.5206475,-0.6257092,1.2773842,-0.5206475,-0.6257092
1715850725.678629,1.2773842,-0.5206475,-0.6257092,1.2773842,-0.5206475,-0.6257092
1715850725.6808784,1.2773842,-0.5206475,-0.6257092,1.2773842,-0.5206475,-0.6257092
1715850725.683038,1.2773842,-0.5206475,-0.6257092,1.2773842,-0.5206475,-0.6257092
1715850725.6851926,1.2773842,-0.5206475,-0.6257092,1.2773842,-0.5206475,-0.6257092
1715850725.6872883,1.2773842,-0.5206475,-0.6257092,1.2773842,-0.5206475,-0.6257092
1715850725.689415,1.2773842,-0.5206475,-0.6257092,1.2773842,-0.5206475,-0.6257092
1715850725.6915948,1.2773842,-0.5206475,-0.6257092,1.2773842,-0.5206475,-0.6257092
1715850725.693692,1.2773842,-0.5206475,-0.6257092,1.2773842,-0.5206475,-0.6257092
1715850725.6961148,1.2773842,-0.5206475,-0.6257092,1.2773842,-0.5206475,-0.6257092
1715850725.6992393,1.2773842,-0.5206475,-0.6257092,1.2773842,-0.5206475,-0.6257092
1715850725.7017963,1.2773842,-0.5206475,-0.6257092,1.2773842,-0.5206475,-0.6257092
1715850725.7039585,1.2773842,-0.5206475,-0.6257092,1.2773842,-0.5206475,-0.6257092
1715850725.706109,1.2773842,-0.5206475,-0.6257092,1.2773842,-0.5206475,-0.6257092
1715850725.7082558,1.2773842,-0.5206475,-0.6257092,1.2773842,-0.5206475,-0.6257092
1715850725.7103932,1.2773842,-0.5206475,-0.6257092,1.2773842,-0.5206475,-0.6257092
1715850725.7128134,1.2773842,-0.5206475,-0.6257092,1.2773842,-0.5206475,-0.6257092
1715850725.7151043,1.2773842,-0.5206475,-0.6257092,1.2773842,-0.5206475,-0.6257092
1715850725.7173436,1.2773842,-0.5206475,-0.6257092,1.2773842,-0.5206475,-0.6257092
1715850725.7194443,1.2773842,-0.5206475,-0.6257092,1.2773842,-0.5206475,-0.6257092
1715850725.7215347,1.2773842,-0.5206475,-0.6257092,1.2773842,-0.5206475,-0.6257092
1715850725.7236593,1.2773842,-0.5206475,-0.6257092,1.2773842,-0.5206475,-0.6257092
1715850725.7257714,1.2773842,-0.5206475,-0.6257092,1.2773842,-0.5206475,-0.6257092
1715850725.7278538,1.2773842,-0.5206475,-0.6257092,1.2773842,-0.5206475,-0.6257092
1715850725.7303174,1.2773842,-0.5206475,-0.6257092,1.2773842,-0.5206475,-0.6257092
1715850725.7325041,1.2773842,-0.5206475,-0.6257092,1.2773842,-0.5206475,-0.6257092
1715850725.734678,1.2773842,-0.5206475,-0.6257092,1.2773842,-0.5206475,-0.6257092
1715850725.736834,1.2773842,-0.5206475,-0.6257092,1.2773842,-0.5206475,-0.6257092
1715850725.7392232,1.2773842,-0.5206475,-0.6257092,1.2773842,-0.5206475,-0.6257092
1715850725.7414978,1.2773842,-0.5206475,-0.6257092,1.2773842,-0.5206475,-0.6257092
1715850725.7436326,1.2773842,-0.5206475,-0.6257092,1.2773842,-0.5206475,-0.6257092
1715850725.7459958,1.2773842,-0.5206475,-0.6257092,1.2773842,-0.5206475,-0.6257092
1715850725.7482193,1.2773842,-0.5206475,-0.6257092,1.2773842,-0.5206475,-0.6257092
1715850725.7503939,1.2773842,-0.5206475,-0.6257092,1.2773842,-0.5206475,-0.6257092
1715850725.7525337,1.2773842,-0.5206475,-0.6257092,1.2773842,-0.5206475,-0.6257092
1715850725.7584383,0.99069506,-0.7113297,-0.62038285,0.99069506,-0.7113297,-0.62038285
1715850725.761442,0.28442535,0.22077587,-1.6366442,0.28442535,0.22077587,-1.6366442
1715850725.764269,0.14168005,-0.08921582,-1.4917684,0.14168005,-0.08921582,-1.4917684
1715850725.7678652,0.14168005,-0.08921582,-1.4917684,0.14168005,-0.08921582,-1.4917684
1715850725.7712398,0.14168005,-0.08921582,-1.4917684,0.14168005,-0.08921582,-1.4917684
1715850725.7745655,0.14168005,-0.08921582,-1.4917684,0.14168005,-0.08921582,-1.4917684
1715850725.7784605,0.14168005,-0.08921582,-1.4917684,0.14168005,-0.08921582,-1.4917684
1715850725.7820575,0.14168005,-0.08921582,-1.4917684,0.14168005,-0.08921582,-1.4917684
1715850725.7875025,0.07350318,-0.4524707,-0.7418229,0.07350318,-0.4524707,-0.7418229
1715850725.7909975,0.07350318,-0.4524707,-0.7418229,0.07350318,-0.4524707,-0.7418229
1715850725.7946365,0.07350318,-0.4524707,-0.7418229,0.07350318,-0.4524707,-0.7418229
1715850725.7975123,0.07350318,-0.4524707,-0.7418229,0.07350318,-0.4524707,-0.7418229
1715850725.8003695,0.2716422,-0.33742222,-0.7258439,0.2716422,-0.33742222,-0.7258439
1715850725.803378,0.39201698,-0.21172112,-0.81639135,0.39201698,-0.21172112,-0.81639135
1715850725.805754,0.39201698,-0.21172112,-0.81639135,0.39201698,-0.21172112,-0.81639135
1715850725.8079655,0.39201698,-0.21172112,-0.81639135,0.39201698,-0.21172112,-0.81639135
1715850725.810116,0.39201698,-0.21172112,-0.81639135,0.39201698,-0.21172112,-0.81639135
1715850725.8123546,0.39201698,-0.21172112,-0.81639135,0.39201698,-0.21172112,-0.81639135
1715850725.8145106,0.39201698,-0.21172112,-0.81639135,0.39201698,-0.21172112,-0.81639135
1715850725.81691,0.45699805,-0.09773793,-0.9378314,0.45699805,-0.09773793,-0.9378314
1715850725.8191018,0.45699805,-0.09773793,-0.9378314,0.45699805,-0.09773793,-0.9378314
1715850725.8212774,0.45699805,-0.09773793,-0.9378314,0.45699805,-0.09773793,-0.9378314
1715850725.8242307,0.42410803,-0.12969583,-1.0997515,0.42410803,-0.12969583,-1.0997515
1715850725.8265667,0.42410803,-0.12969583,-1.0997515,0.42410803,-0.12969583,-1.0997515
1715850725.8287442,0.42410803,-0.12969583,-1.0997515,0.42410803,-0.12969583,-1.0997515
1715850725.8308623,0.42410803,-0.12969583,-1.0997515,0.42410803,-0.12969583,-1.0997515
1715850725.8329134,0.33569115,-0.26391903,-1.1349051,0.33569115,-0.26391903,-1.1349051
1715850725.8350809,0.33569115,-0.26391903,-1.1349051,0.33569115,-0.26391903,-1.1349051
1715850725.837471,0.33569115,-0.26391903,-1.1349051,0.33569115,-0.26391903,-1.1349051
1715850725.839736,0.33569115,-0.26391903,-1.1349051,0.33569115,-0.26391903,-1.1349051
1715850725.842159,0.33569115,-0.26391903,-1.1349051,0.33569115,-0.26391903,-1.1349051
1715850725.84448,0.33569115,-0.26391903,-1.1349051,0.33569115,-0.26391903,-1.1349051
1715850725.846667,0.33569115,-0.26391903,-1.1349051,0.33569115,-0.26391903,-1.1349051
1715850725.8488812,0.33569115,-0.26391903,-1.1349051,0.33569115,-0.26391903,-1.1349051
1715850725.8509605,0.33569115,-0.26391903,-1.1349051,0.33569115,-0.26391903,-1.1349051
1715850725.853199,0.33569115,-0.26391903,-1.1349051,0.33569115,-0.26391903,-1.1349051
1715850725.855288,0.33569115,-0.26391903,-1.1349051,0.33569115,-0.26391903,-1.1349051
1715850725.8574772,0.33569115,-0.26391903,-1.1349051,0.33569115,-0.26391903,-1.1349051
1715850725.8597775,0.33569115,-0.26391903,-1.1349051,0.33569115,-0.26391903,-1.1349051
1715850725.862018,0.33569115,-0.26391903,-1.1349051,0.33569115,-0.26391903,-1.1349051
1715850725.8642445,0.33569115,-0.26391903,-1.1349051,0.33569115,-0.26391903,-1.1349051
1715850725.8665142,0.33569115,-0.26391903,-1.1349051,0.33569115,-0.26391903,-1.1349051
1715850725.8687692,0.33569115,-0.26391903,-1.1349051,0.33569115,-0.26391903,-1.1349051
1715850725.8709083,0.33569115,-0.26391903,-1.1349051,0.33569115,-0.26391903,-1.1349051
1715850725.8730588,0.33569115,-0.26391903,-1.1349051,0.33569115,-0.26391903,-1.1349051
1715850725.8752322,0.33569115,-0.26391903,-1.1349051,0.33569115,-0.26391903,-1.1349051
1715850725.87746,0.33569115,-0.26391903,-1.1349051,0.33569115,-0.26391903,-1.1349051
1715850725.8797033,0.33569115,-0.26391903,-1.1349051,0.33569115,-0.26391903,-1.1349051
1715850725.8820024,0.33569115,-0.26391903,-1.1349051,0.33569115,-0.26391903,-1.1349051
1715850725.8842258,0.33569115,-0.26391903,-1.1349051,0.33569115,-0.26391903,-1.1349051
1715850725.886406,0.33569115,-0.26391903,-1.1349051,0.33569115,-0.26391903,-1.1349051
1715850725.8885632,0.33569115,-0.26391903,-1.1349051,0.33569115,-0.26391903,-1.1349051
1715850725.890686,0.33569115,-0.26391903,-1.1349051,0.33569115,-0.26391903,-1.1349051
1715850725.8928986,0.33569115,-0.26391903,-1.1349051,0.33569115,-0.26391903,-1.1349051
1715850725.8959076,0.33569115,-0.26391903,-1.1349051,0.33569115,-0.26391903,-1.1349051
1715850725.8987408,0.33569115,-0.26391903,-1.1349051,0.33569115,-0.26391903,-1.1349051
1715850725.9016485,0.33569115,-0.26391903,-1.1349051,0.33569115,-0.26391903,-1.1349051
1715850725.9059775,-0.11065425,-0.34487906,-0.6075997,-0.11065425,-0.34487906,-0.6075997
1715850725.9086142,-0.43662488,-0.64315283,-0.21345218,-0.43662488,-0.64315283,-0.21345218
1715850725.9107924,-0.43662488,-0.64315283,-0.21345218,-0.43662488,-0.64315283,-0.21345218
1715850725.9131265,-0.43662488,-0.64315283,-0.21345218,-0.43662488,-0.64315283,-0.21345218
1715850725.9152985,-0.43662488,-0.64315283,-0.21345218,-0.43662488,-0.64315283,-0.21345218
1715850725.91745,-0.43662488,-0.64315283,-0.21345218,-0.43662488,-0.64315283,-0.21345218
1715850725.919567,-0.33968592,-0.833835,-0.20919113,-0.33968592,-0.833835,-0.20919113
1715850725.9216914,-0.33968592,-0.833835,-0.20919113,-0.33968592,-0.833835,-0.20919113
1715850725.924361,-0.13195951,-0.92864347,-0.2656501,-0.13195951,-0.92864347,-0.2656501
1715850725.92802,-0.13195951,-0.92864347,-0.2656501,-0.13195951,-0.92864347,-0.2656501
1715850725.9328969,-0.13195951,-0.92864347,-0.2656501,-0.13195951,-0.92864347,-0.2656501
1715850725.9365547,-0.08721845,-0.8519445,-0.29547748,-0.08721845,-0.8519445,-0.29547748
1715850725.939413,-0.08721845,-0.8519445,-0.29547748,-0.08721845,-0.8519445,-0.29547748
1715850725.9429502,-0.08721845,-0.8519445,-0.29547748,-0.08721845,-0.8519445,-0.29547748
1715850725.9462779,-0.08721845,-0.8519445,-0.29547748,-0.08721845,-0.8519445,-0.29547748
1715850725.9492178,-0.08721845,-0.8519445,-0.29547748,-0.08721845,-0.8519445,-0.29547748
1715850725.952274,-0.08721845,-0.8519445,-0.29547748,-0.08721845,-0.8519445,-0.29547748
1715850725.9547627,-0.08721845,-0.8519445,-0.29547748,-0.08721845,-0.8519445,-0.29547748
1715850725.9569728,-0.08721845,-0.8519445,-0.29547748,-0.08721845,-0.8519445,-0.29547748
1715850725.9591494,-0.08721845,-0.8519445,-0.29547748,-0.08721845,-0.8519445,-0.29547748
1715850725.9613478,-0.08721845,-0.8519445,-0.29547748,-0.08721845,-0.8519445,-0.29547748
1715850725.9641767,-0.3982754,-0.27563694,-0.009986846,-0.3982754,-0.27563694,-0.009986846
1715850725.9663396,-0.3982754,-0.27563694,-0.009986846,-0.3982754,-0.27563694,-0.009986846
1715850725.9686,-0.3982754,-0.27563694,-0.009986846,-0.3982754,-0.27563694,-0.009986846
1715850725.971731,-0.5527386,-0.29268116,0.12956268,-0.5527386,-0.29268116,0.12956268
1715850725.9747221,-0.67630917,-0.50360334,0.24887219,-0.67630917,-0.50360334,0.24887219
1715850725.976965,-0.67630917,-0.50360334,0.24887219,-0.67630917,-0.50360334,0.24887219
1715850725.9792523,-0.67630917,-0.50360334,0.24887219,-0.67630917,-0.50360334,0.24887219
1715850725.9815063,-0.67630917,-0.50360334,0.24887219,-0.67630917,-0.50360334,0.24887219
1715850725.9837086,-0.67630917,-0.50360334,0.24887219,-0.67630917,-0.50360334,0.24887219
1715850725.9859483,-0.68270075,-0.74861395,0.26378587,-0.68270075,-0.74861395,0.26378587
1715850725.9882026,-0.68270075,-0.74861395,0.26378587,-0.68270075,-0.74861395,0.26378587
1715850725.990635,-0.68270075,-0.74861395,0.26378587,-0.68270075,-0.74861395,0.26378587
1715850725.9929845,-0.5591302,-1.1310436,0.19987006,-0.5591302,-1.1310436,0.19987006
1715850725.9952521,-0.5591302,-1.1310436,0.19987006,-0.5591302,-1.1310436,0.19987006
1715850725.9974885,-0.5591302,-1.1310436,0.19987006,-0.5591302,-1.1310436,0.19987006
1715850725.9996874,-0.5591302,-1.1310436,0.19987006,-0.5591302,-1.1310436,0.19987006
1715850726.0019774,-0.4888228,-1.1800457,0.16578163,-0.4888228,-1.1800457,0.16578163
1715850726.0041823,-0.4888228,-1.1800457,0.16578163,-0.4888228,-1.1800457,0.16578163
1715850726.0063396,-0.4888228,-1.1800457,0.16578163,-0.4888228,-1.1800457,0.16578163
1715850726.0088627,-0.4888228,-1.1800457,0.16578163,-0.4888228,-1.1800457,0.16578163
1715850726.0128384,-0.4888228,-1.1800457,0.16578163,-0.4888228,-1.1800457,0.16578163
1715850726.0174787,-0.4600607,-1.0319741,0.20732692,-0.4600607,-1.0319741,0.20732692
1715850726.0212538,-0.4600607,-1.0319741,0.20732692,-0.4600607,-1.0319741,0.20732692
1715850726.024979,-0.4600607,-1.0319741,0.20732692,-0.4600607,-1.0319741,0.20732692
1715850726.0293422,-0.4600607,-1.0319741,0.20732692,-0.4600607,-1.0319741,0.20732692
1715850726.0324955,-0.4600607,-1.0319741,0.20732692,-0.4600607,-1.0319741,0.20732692
1715850726.0353029,-0.4600607,-1.0319741,0.20732692,-0.4600607,-1.0319741,0.20732692
1715850726.0377433,-0.4600607,-1.0319741,0.20732692,-0.4600607,-1.0319741,0.20732692
1715850726.040172,-0.4600607,-1.0319741,0.20732692,-0.4600607,-1.0319741,0.20732692
1715850726.042608,-0.4600607,-1.0319741,0.20732692,-0.4600607,-1.0319741,0.20732692
1715850726.0451324,-0.4600607,-1.0319741,0.20732692,-0.4600607,-1.0319741,0.20732692
1715850726.0482142,-0.4600607,-1.0319741,0.20732692,-0.4600607,-1.0319741,0.20732692
1715850726.0507176,-0.4600607,-1.0319741,0.20732692,-0.4600607,-1.0319741,0.20732692
1715850726.0531714,-0.4600607,-1.0319741,0.20732692,-0.4600607,-1.0319741,0.20732692
1715850726.0555959,-0.4600607,-1.0319741,0.20732692,-0.4600607,-1.0319741,0.20732692
1715850726.0580716,-0.4600607,-1.0319741,0.20732692,-0.4600607,-1.0319741,0.20732692
1715850726.0605195,-0.4600607,-1.0319741,0.20732692,-0.4600607,-1.0319741,0.20732692
1715850726.0630465,-0.4600607,-1.0319741,0.20732692,-0.4600607,-1.0319741,0.20732692
1715850726.0656238,-0.4600607,-1.0319741,0.20732692,-0.4600607,-1.0319741,0.20732692
1715850726.068396,-0.4600607,-1.0319741,0.20732692,-0.4600607,-1.0319741,0.20732692
1715850726.070885,-0.4600607,-1.0319741,0.20732692,-0.4600607,-1.0319741,0.20732692
1715850726.0733438,-0.4600607,-1.0319741,0.20732692,-0.4600607,-1.0319741,0.20732692
1715850726.0758245,-0.4600607,-1.0319741,0.20732692,-0.4600607,-1.0319741,0.20732692
1715850726.0783553,-0.4600607,-1.0319741,0.20732692,-0.4600607,-1.0319741,0.20732692
1715850726.0809884,-0.4600607,-1.0319741,0.20732692,-0.4600607,-1.0319741,0.20732692
1715850726.0834394,-0.4600607,-1.0319741,0.20732692,-0.4600607,-1.0319741,0.20732692
1715850726.0861375,-0.4600607,-1.0319741,0.20732692,-0.4600607,-1.0319741,0.20732692
1715850726.0886903,-0.4600607,-1.0319741,0.20732692,-0.4600607,-1.0319741,0.20732692
1715850726.0913584,-0.4600607,-1.0319741,0.20732692,-0.4600607,-1.0319741,0.20732692
1715850726.0939074,-0.4600607,-1.0319741,0.20732692,-0.4600607,-1.0319741,0.20732692
1715850726.0964746,-0.4600607,-1.0319741,0.20732692,-0.4600607,-1.0319741,0.20732692
1715850726.099211,-0.4600607,-1.0319741,0.20732692,-0.4600607,-1.0319741,0.20732692
1715850726.1018987,-0.4600607,-1.0319741,0.20732692,-0.4600607,-1.0319741,0.20732692
1715850726.1045427,-0.4600607,-1.0319741,0.20732692,-0.4600607,-1.0319741,0.20732692
1715850726.1071126,-0.4600607,-1.0319741,0.20732692,-0.4600607,-1.0319741,0.20732692
1715850726.109676,-0.4600607,-1.0319741,0.20732692,-0.4600607,-1.0319741,0.20732692
1715850726.1122277,-0.4600607,-1.0319741,0.20732692,-0.4600607,-1.0319741,0.20732692
1715850726.1147523,-0.4600607,-1.0319741,0.20732692,-0.4600607,-1.0319741,0.20732692
1715850726.1174002,-0.4600607,-1.0319741,0.20732692,-0.4600607,-1.0319741,0.20732692
1715850726.1198344,-0.4600607,-1.0319741,0.20732692,-0.4600607,-1.0319741,0.20732692
1715850726.1223817,-0.4600607,-1.0319741,0.20732692,-0.4600607,-1.0319741,0.20732692
1715850726.12512,-0.4600607,-1.0319741,0.20732692,-0.4600607,-1.0319741,0.20732692
1715850726.1281052,-0.505867,-0.66339284,0.33196273,-0.505867,-0.66339284,0.33196273
1715850726.1316912,-0.4270375,0.63942444,0.5343628,-0.4270375,0.63942444,0.5343628
1715850726.1348557,-0.2810964,-0.7464834,0.41079226,-0.2810964,-0.7464834,0.41079226
1715850726.1390274,-2.7162888,1.4863089,-0.78656393,-2.7162888,1.4863089,-0.78656393
1715850726.1415858,-2.7162888,1.4863089,-0.78656393,-2.7162888,1.4863089,-0.78656393
1715850726.1449103,-2.7152236,1.5544858,-0.7663239,-2.7152236,1.5544858,-0.7663239
1715850726.1474123,-2.7152236,1.5544858,-0.7663239,-2.7152236,1.5544858,-0.7663239
1715850726.1498477,-2.7152236,1.5544858,-0.7663239,-2.7152236,1.5544858,-0.7663239
1715850726.1526742,-2.078196,0.8386287,-0.42117858,-2.078196,0.8386287,-0.42117858
1715850726.1551452,-2.078196,0.8386287,-0.42117858,-2.078196,0.8386287,-0.42117858
1715850726.1576593,-2.078196,0.8386287,-0.42117858,-2.078196,0.8386287,-0.42117858
1715850726.1602213,-2.078196,0.8386287,-0.42117858,-2.078196,0.8386287,-0.42117858
1715850726.163691,-1.4401032,0.15686005,-0.055793177,-1.4401032,0.15686005,-0.055793177
1715850726.1661828,-1.4401032,0.15686005,-0.055793177,-1.4401032,0.15686005,-0.055793177
1715850726.1686397,-1.4401032,0.15686005,-0.055793177,-1.4401032,0.15686005,-0.055793177
1715850726.1710856,-1.4401032,0.15686005,-0.055793177,-1.4401032,0.15686005,-0.055793177
1715850726.1735718,-0.6017407,-0.5313002,0.39907435,-0.6017407,-0.5313002,0.39907435
1715850726.176069,-0.6017407,-0.5313002,0.39907435,-0.6017407,-0.5313002,0.39907435
1715850726.1785867,-0.6017407,-0.5313002,0.39907435,-0.6017407,-0.5313002,0.39907435
1715850726.1813507,-0.6017407,-0.5313002,0.39907435,-0.6017407,-0.5313002,0.39907435
1715850726.183852,-0.6017407,-0.5313002,0.39907435,-0.6017407,-0.5313002,0.39907435
1715850726.1862936,-0.6017407,-0.5313002,0.39907435,-0.6017407,-0.5313002,0.39907435
1715850726.1887443,-0.6017407,-0.5313002,0.39907435,-0.6017407,-0.5313002,0.39907435
1715850726.1912045,-0.6017407,-0.5313002,0.39907435,-0.6017407,-0.5313002,0.39907435
1715850726.1936588,-0.6017407,-0.5313002,0.39907435,-0.6017407,-0.5313002,0.39907435
1715850726.1962378,-0.6017407,-0.5313002,0.39907435,-0.6017407,-0.5313002,0.39907435
1715850726.1988375,-0.6017407,-0.5313002,0.39907435,-0.6017407,-0.5313002,0.39907435
1715850726.2013462,-0.6017407,-0.5313002,0.39907435,-0.6017407,-0.5313002,0.39907435
1715850726.2038217,-0.6017407,-0.5313002,0.39907435,-0.6017407,-0.5313002,0.39907435
1715850726.2062767,-0.6017407,-0.5313002,0.39907435,-0.6017407,-0.5313002,0.39907435
1715850726.2087479,-0.6017407,-0.5313002,0.39907435,-0.6017407,-0.5313002,0.39907435
1715850726.2111921,-0.6017407,-0.5313002,0.39907435,-0.6017407,-0.5313002,0.39907435
1715850726.2143307,0.4081291,-0.32996538,0.28722167,0.4081291,-0.32996538,0.28722167
1715850726.2170658,0.4081291,-0.32996538,0.28722167,0.4081291,-0.32996538,0.28722167
1715850726.2195652,0.4081291,-0.32996538,0.28722167,0.4081291,-0.32996538,0.28722167
1715850726.2220094,0.4081291,-0.32996538,0.28722167,0.4081291,-0.32996538,0.28722167
1715850726.224549,0.25686166,-0.111586355,-0.32317433,0.25686166,-0.111586355,-0.32317433
1715850726.227016,0.25686166,-0.111586355,-0.32317433,0.25686166,-0.111586355,-0.32317433
1715850726.2297125,0.25686166,-0.111586355,-0.32317433,0.25686166,-0.111586355,-0.32317433
1715850726.2321017,0.25686166,-0.111586355,-0.32317433,0.25686166,-0.111586355,-0.32317433
1715850726.2349966,0.25686166,-0.111586355,-0.32317433,0.25686166,-0.111586355,-0.32317433
1715850726.2370987,0.25686166,-0.111586355,-0.32317433,0.25686166,-0.111586355,-0.32317433
1715850726.239037,0.25686166,-0.111586355,-0.32317433,0.25686166,-0.111586355,-0.32317433
1715850726.2445333,0.1886848,-0.31079063,-0.8025429,0.1886848,-0.31079063,-0.8025429
1715850726.2474117,0.1886848,-0.31079063,-0.8025429,0.1886848,-0.31079063,-0.8025429
1715850726.2501945,0.1886848,-0.31079063,-0.8025429,0.1886848,-0.31079063,-0.8025429
1715850726.2531934,0.165249,-0.41092542,-1.0038778,0.165249,-0.41092542,-1.0038778
1715850726.2556217,0.165249,-0.41092542,-1.0038778,0.165249,-0.41092542,-1.0038778
1715850726.2579029,0.165249,-0.41092542,-1.0038778,0.165249,-0.41092542,-1.0038778
1715850726.2600424,0.165249,-0.41092542,-1.0038778,0.165249,-0.41092542,-1.0038778
1715850726.2623985,0.165249,-0.41092542,-1.0038778,0.165249,-0.41092542,-1.0038778
1715850726.26478,0.092811085,-0.4727107,-1.1604714,0.092811085,-0.4727107,-1.1604714
1715850726.2670612,0.092811085,-0.4727107,-1.1604714,0.092811085,-0.4727107,-1.1604714
1715850726.269267,0.092811085,-0.4727107,-1.1604714,0.092811085,-0.4727107,-1.1604714
1715850726.2716372,0.092811085,-0.4727107,-1.1604714,0.092811085,-0.4727107,-1.1604714
1715850726.2739515,0.092811085,-0.4727107,-1.1604714,0.092811085,-0.4727107,-1.1604714
1715850726.276209,0.092811085,-0.4727107,-1.1604714,0.092811085,-0.4727107,-1.1604714
1715850726.2784872,0.092811085,-0.4727107,-1.1604714,0.092811085,-0.4727107,-1.1604714
1715850726.28073,0.092811085,-0.4727107,-1.1604714,0.092811085,-0.4727107,-1.1604714
1715850726.2829297,0.092811085,-0.4727107,-1.1604714,0.092811085,-0.4727107,-1.1604714
1715850726.2851684,0.092811085,-0.4727107,-1.1604714,0.092811085,-0.4727107,-1.1604714
1715850726.2877316,0.092811085,-0.4727107,-1.1604714,0.092811085,-0.4727107,-1.1604714
1715850726.290434,0.092811085,-0.4727107,-1.1604714,0.092811085,-0.4727107,-1.1604714
1715850726.2927542,0.092811085,-0.4727107,-1.1604714,0.092811085,-0.4727107,-1.1604714
1715850726.2950752,0.092811085,-0.4727107,-1.1604714,0.092811085,-0.4727107,-1.1604714
1715850726.2972987,0.092811085,-0.4727107,-1.1604714,0.092811085,-0.4727107,-1.1604714
1715850726.2994661,0.092811085,-0.4727107,-1.1604714,0.092811085,-0.4727107,-1.1604714
1715850726.3016696,0.092811085,-0.4727107,-1.1604714,0.092811085,-0.4727107,-1.1604714
1715850726.304278,-0.19374481,-0.49401596,-1.2254525,-0.19374481,-0.49401596,-1.2254525
1715850726.3072362,-0.18415743,-0.3960117,-1.1689936,-0.18415743,-0.3960117,-1.1689936
1715850726.3096492,-0.18415743,-0.3960117,-1.1689936,-0.18415743,-0.3960117,-1.1689936
1715850726.3120077,-0.18415743,-0.3960117,-1.1689936,-0.18415743,-0.3960117,-1.1689936
1715850726.3143277,-0.063782655,-0.30439904,-1.0912293,-0.063782655,-0.30439904,-1.0912293
1715850726.3165476,-0.063782655,-0.30439904,-1.0912293,-0.063782655,-0.30439904,-1.0912293
1715850726.3187318,-0.063782655,-0.30439904,-1.0912293,-0.063782655,-0.30439904,-1.0912293
1715850726.3209674,-0.063782655,-0.30439904,-1.0912293,-0.063782655,-0.30439904,-1.0912293
1715850726.3233,0.18335849,-0.29481167,-1.0198567,0.18335849,-0.29481167,-1.0198567
1715850726.3256042,0.18335849,-0.29481167,-1.0198567,0.18335849,-0.29481167,-1.0198567
1715850726.327989,0.18335849,-0.29481167,-1.0198567,0.18335849,-0.29481167,-1.0198567
1715850726.330379,0.18335849,-0.29481167,-1.0198567,0.18335849,-0.29481167,-1.0198567
1715850726.3326242,0.18335849,-0.29481167,-1.0198567,0.18335849,-0.29481167,-1.0198567
1715850726.3348157,0.18335849,-0.29481167,-1.0198567,0.18335849,-0.29481167,-1.0198567
1715850726.3372288,0.41878173,-0.33316118,-0.98470294,0.41878173,-0.33316118,-0.98470294
1715850726.3394003,0.41878173,-0.33316118,-0.98470294,0.41878173,-0.33316118,-0.98470294
1715850726.3440416,0.7586008,-0.3906854,-0.95913666,0.7586008,-0.3906854,-0.95913666
1715850726.348267,0.7586008,-0.3906854,-0.95913666,0.7586008,-0.3906854,-0.95913666
1715850726.3520713,0.7586008,-0.3906854,-0.95913666,0.7586008,-0.3906854,-0.95913666
1715850726.3572628,0.8661924,-0.31505167,-0.92291766,0.8661924,-0.31505167,-0.92291766
1715850726.360987,0.8661924,-0.31505167,-0.92291766,0.8661924,-0.31505167,-0.92291766
1715850726.3654313,0.8661924,-0.31505167,-0.92291766,0.8661924,-0.31505167,-0.92291766
1715850726.369633,0.8661924,-0.31505167,-0.92291766,0.8661924,-0.31505167,-0.92291766
1715850726.3734045,0.8661924,-0.31505167,-0.92291766,0.8661924,-0.31505167,-0.92291766
1715850726.3771756,0.8661924,-0.31505167,-0.92291766,0.8661924,-0.31505167,-0.92291766
1715850726.3813303,0.8661924,-0.31505167,-0.92291766,0.8661924,-0.31505167,-0.92291766
1715850726.3858235,0.8661924,-0.31505167,-0.92291766,0.8661924,-0.31505167,-0.92291766
1715850726.3888462,0.8661924,-0.31505167,-0.92291766,0.8661924,-0.31505167,-0.92291766
1715850726.3918064,0.8661924,-0.31505167,-0.92291766,0.8661924,-0.31505167,-0.92291766
1715850726.3946745,0.8661924,-0.31505167,-0.92291766,0.8661924,-0.31505167,-0.92291766
1715850726.3971994,0.8661924,-0.31505167,-0.92291766,0.8661924,-0.31505167,-0.92291766
1715850726.399582,0.8661924,-0.31505167,-0.92291766,0.8661924,-0.31505167,-0.92291766
1715850726.4018044,0.8661924,-0.31505167,-0.92291766,0.8661924,-0.31505167,-0.92291766
1715850726.4045289,0.8661924,-0.31505167,-0.92291766,0.8661924,-0.31505167,-0.92291766
1715850726.406877,0.8661924,-0.31505167,-0.92291766,0.8661924,-0.31505167,-0.92291766
1715850726.4091141,0.8661924,-0.31505167,-0.92291766,0.8661924,-0.31505167,-0.92291766
1715850726.4113023,0.8661924,-0.31505167,-0.92291766,0.8661924,-0.31505167,-0.92291766
1715850726.4136593,0.8661924,-0.31505167,-0.92291766,0.8661924,-0.31505167,-0.92291766
1715850726.415897,0.8661924,-0.31505167,-0.92291766,0.8661924,-0.31505167,-0.92291766
1715850726.4180586,0.8661924,-0.31505167,-0.92291766,0.8661924,-0.31505167,-0.92291766
1715850726.4239697,0.053396333,0.6543381,-0.9442229,0.053396333,0.6543381,-0.9442229
1715850726.428091,0.053396333,0.6543381,-0.9442229,0.053396333,0.6543381,-0.9442229
1715850726.4318695,0.053396333,0.6543381,-0.9442229,0.053396333,0.6543381,-0.9442229
1715850726.4355962,0.11624688,0.63090235,-0.88563347,0.11624688,0.63090235,-0.88563347
1715850726.4385314,0.11624688,0.63090235,-0.88563347,0.11624688,0.63090235,-0.88563347
1715850726.4414146,0.11624688,0.63090235,-0.88563347,0.11624688,0.63090235,-0.88563347
1715850726.444042,0.3079943,0.62344545,-0.87391555,0.3079943,0.62344545,-0.87391555
1715850726.4463167,0.3079943,0.62344545,-0.87391555,0.3079943,0.62344545,-0.87391555
1715850726.448588,0.3079943,0.62344545,-0.87391555,0.3079943,0.62344545,-0.87391555
1715850726.4506702,0.3079943,0.62344545,-0.87391555,0.3079943,0.62344545,-0.87391555
1715850726.4527783,0.3079943,0.62344545,-0.87391555,0.3079943,0.62344545,-0.87391555
1715850726.454811,0.3079943,0.62344545,-0.87391555,0.3079943,0.62344545,-0.87391555
1715850726.4568603,0.3079943,0.62344545,-0.87391555,0.3079943,0.62344545,-0.87391555
1715850726.4589589,0.3079943,0.62344545,-0.87391555,0.3079943,0.62344545,-0.87391555
1715850726.4610386,0.3079943,0.62344545,-0.87391555,0.3079943,0.62344545,-0.87391555
1715850726.4631114,0.3079943,0.62344545,-0.87391555,0.3079943,0.62344545,-0.87391555
1715850726.4651399,0.3079943,0.62344545,-0.87391555,0.3079943,0.62344545,-0.87391555
1715850726.4671762,0.3079943,0.62344545,-0.87391555,0.3079943,0.62344545,-0.87391555
1715850726.4692523,0.3079943,0.62344545,-0.87391555,0.3079943,0.62344545,-0.87391555
1715850726.4712982,0.3079943,0.62344545,-0.87391555,0.3079943,0.62344545,-0.87391555
1715850726.473332,0.3079943,0.62344545,-0.87391555,0.3079943,0.62344545,-0.87391555
1715850726.4753027,0.3079943,0.62344545,-0.87391555,0.3079943,0.62344545,-0.87391555
1715850726.4774177,0.3079943,0.62344545,-0.87391555,0.3079943,0.62344545,-0.87391555
1715850726.4794526,0.3079943,0.62344545,-0.87391555,0.3079943,0.62344545,-0.87391555
1715850726.4815004,0.3079943,0.62344545,-0.87391555,0.3079943,0.62344545,-0.87391555
1715850726.48377,0.81825554,0.7693866,-0.72477865,0.81825554,0.7693866,-0.72477865
1715850726.4859262,0.81825554,0.7693866,-0.72477865,0.81825554,0.7693866,-0.72477865
1715850726.4883475,0.64887863,0.8215845,-0.55540174,0.64887863,0.8215845,-0.55540174
1715850726.490377,0.64887863,0.8215845,-0.55540174,0.64887863,0.8215845,-0.55540174
1715850726.492464,0.29734167,0.86419505,-0.32637012,0.29734167,0.86419505,-0.32637012
1715850726.4946818,0.29734167,0.86419505,-0.32637012,0.29734167,0.86419505,-0.32637012
1715850726.496821,0.29734167,0.86419505,-0.32637012,0.29734167,0.86419505,-0.32637012
1715850726.4988668,0.29734167,0.86419505,-0.32637012,0.29734167,0.86419505,-0.32637012
1715850726.5008452,0.29734167,0.86419505,-0.32637012,0.29734167,0.86419505,-0.32637012
1715850726.5027943,0.29734167,0.86419505,-0.32637012,0.29734167,0.86419505,-0.32637012
1715850726.5054457,-0.05313002,0.8002792,-0.17936374,-0.05313002,0.8002792,-0.17936374
1715850726.507585,-0.05313002,0.8002792,-0.17936374,-0.05313002,0.8002792,-0.17936374
1715850726.5096278,-0.05313002,0.8002792,-0.17936374,-0.05313002,0.8002792,-0.17936374
1715850726.5119586,-0.05313002,0.8002792,-0.17936374,-0.05313002,0.8002792,-0.17936374
1715850726.5140228,-0.30346695,0.51265806,-0.17403743,-0.30346695,0.51265806,-0.17403743
1715850726.516081,-0.30346695,0.51265806,-0.17403743,-0.30346695,0.51265806,-0.17403743
1715850726.5180879,-0.30346695,0.51265806,-0.17403743,-0.30346695,0.51265806,-0.17403743
1715850726.5201266,-0.30346695,0.51265806,-0.17403743,-0.30346695,0.51265806,-0.17403743
1715850726.5221405,-0.4834965,0.13022846,-0.15912373,-0.4834965,0.13022846,-0.15912373
1715850726.5243719,-0.4834965,0.13022846,-0.15912373,-0.4834965,0.13022846,-0.15912373
1715850726.5263789,-0.4834965,0.13022846,-0.15912373,-0.4834965,0.13022846,-0.15912373
1715850726.5286446,-0.4834965,0.13022846,-0.15912373,-0.4834965,0.13022846,-0.15912373
1715850726.530767,-0.4834965,0.13022846,-0.15912373,-0.4834965,0.13022846,-0.15912373
1715850726.5328147,-0.4834965,0.13022846,-0.15912373,-0.4834965,0.13022846,-0.15912373
1715850726.5348308,-0.4834965,0.13022846,-0.15912373,-0.4834965,0.13022846,-0.15912373
1715850726.5369596,-0.6241113,-0.18508954,-0.067511074,-0.6241113,-0.18508954,-0.067511074
1715850726.5389926,-0.6241113,-0.18508954,-0.067511074,-0.6241113,-0.18508954,-0.067511074
1715850726.5411541,-0.6241113,-0.18508954,-0.067511074,-0.6241113,-0.18508954,-0.067511074
1715850726.5433924,-0.6241113,-0.18508954,-0.067511074,-0.6241113,-0.18508954,-0.067511074
1715850726.5457196,-0.6241113,-0.18508954,-0.067511074,-0.6241113,-0.18508954,-0.067511074
1715850726.547718,-0.6241113,-0.18508954,-0.067511074,-0.6241113,-0.18508954,-0.067511074
1715850726.5497456,-0.6241113,-0.18508954,-0.067511074,-0.6241113,-0.18508954,-0.067511074
1715850726.5517573,-0.6241113,-0.18508954,-0.067511074,-0.6241113,-0.18508954,-0.067511074
1715850726.553806,-0.6241113,-0.18508954,-0.067511074,-0.6241113,-0.18508954,-0.067511074
1715850726.5558383,-0.6241113,-0.18508954,-0.067511074,-0.6241113,-0.18508954,-0.067511074
1715850726.5578673,-0.6241113,-0.18508954,-0.067511074,-0.6241113,-0.18508954,-0.067511074
1715850726.5598867,-0.6241113,-0.18508954,-0.067511074,-0.6241113,-0.18508954,-0.067511074
1715850726.5619676,-0.6241113,-0.18508954,-0.067511074,-0.6241113,-0.18508954,-0.067511074
1715850726.5641022,-0.6241113,-0.18508954,-0.067511074,-0.6241113,-0.18508954,-0.067511074
1715850726.5661936,-0.6241113,-0.18508954,-0.067511074,-0.6241113,-0.18508954,-0.067511074
1715850726.568217,-0.6241113,-0.18508954,-0.067511074,-0.6241113,-0.18508954,-0.067511074
1715850726.5702229,-0.6241113,-0.18508954,-0.067511074,-0.6241113,-0.18508954,-0.067511074
1715850726.57224,-0.6241113,-0.18508954,-0.067511074,-0.6241113,-0.18508954,-0.067511074
1715850726.5742493,-0.6241113,-0.18508954,-0.067511074,-0.6241113,-0.18508954,-0.067511074
1715850726.5763133,-0.6241113,-0.18508954,-0.067511074,-0.6241113,-0.18508954,-0.067511074
1715850726.5783834,-0.6241113,-0.18508954,-0.067511074,-0.6241113,-0.18508954,-0.067511074
1715850726.5808613,-0.6241113,-0.18508954,-0.067511074,-0.6241113,-0.18508954,-0.067511074
1715850726.5829923,-0.6241113,-0.18508954,-0.067511074,-0.6241113,-0.18508954,-0.067511074
1715850726.5850425,-0.6241113,-0.18508954,-0.067511074,-0.6241113,-0.18508954,-0.067511074
1715850726.5870004,-0.6241113,-0.18508954,-0.067511074,-0.6241113,-0.18508954,-0.067511074
1715850726.5890353,-0.6241113,-0.18508954,-0.067511074,-0.6241113,-0.18508954,-0.067511074
1715850726.591045,-0.6241113,-0.18508954,-0.067511074,-0.6241113,-0.18508954,-0.067511074
1715850726.5931904,-0.6241113,-0.18508954,-0.067511074,-0.6241113,-0.18508954,-0.067511074
1715850726.5952966,-0.6241113,-0.18508954,-0.067511074,-0.6241113,-0.18508954,-0.067511074
1715850726.5973413,-0.6241113,-0.18508954,-0.067511074,-0.6241113,-0.18508954,-0.067511074
1715850726.5997586,-0.6241113,-0.18508954,-0.067511074,-0.6241113,-0.18508954,-0.067511074
1715850726.6018903,-0.6241113,-0.18508954,-0.067511074,-0.6241113,-0.18508954,-0.067511074
1715850726.6038978,-0.6241113,-0.18508954,-0.067511074,-0.6241113,-0.18508954,-0.067511074
1715850726.6059108,-0.6241113,-0.18508954,-0.067511074,-0.6241113,-0.18508954,-0.067511074
1715850726.607934,-0.6241113,-0.18508954,-0.067511074,-0.6241113,-0.18508954,-0.067511074
1715850726.6099544,-0.6241113,-0.18508954,-0.067511074,-0.6241113,-0.18508954,-0.067511074
1715850726.6121356,-0.6241113,-0.18508954,-0.067511074,-0.6241113,-0.18508954,-0.067511074
1715850726.614696,-0.8680566,-0.18402427,0.0762995,-0.8680566,-0.18402427,0.0762995
1715850726.6176226,-0.38549224,0.08016108,0.607866,-0.38549224,0.08016108,0.607866
1715850726.6213105,1.6683358,-0.96379715,0.9551419,1.6683358,-0.96379715,0.9551419
1715850726.6233733,1.6683358,-0.96379715,0.9551419,1.6683358,-0.96379715,0.9551419
1715850726.6254363,1.6683358,-0.96379715,0.9551419,1.6683358,-0.96379715,0.9551419
1715850726.627388,1.6683358,-0.96379715,0.9551419,1.6683358,-0.96379715,0.9551419
1715850726.6294332,1.6683358,-0.96379715,0.9551419,1.6683358,-0.96379715,0.9551419
1715850726.631451,1.6683358,-0.96379715,0.9551419,1.6683358,-0.96379715,0.9551419
1715850726.6334345,1.6683358,-0.96379715,0.9551419,1.6683358,-0.96379715,0.9551419
1715850726.635655,1.6683358,-0.96379715,0.9551419,1.6683358,-0.96379715,0.9551419
1715850726.6378338,1.6683358,-0.96379715,0.9551419,1.6683358,-0.96379715,0.9551419
1715850726.639896,1.6683358,-0.96379715,0.9551419,1.6683358,-0.96379715,0.9551419
1715850726.6419122,1.6683358,-0.96379715,0.9551419,1.6683358,-0.96379715,0.9551419
1715850726.6439064,1.6683358,-0.96379715,0.9551419,1.6683358,-0.96379715,0.9551419
1715850726.6460092,1.6683358,-0.96379715,0.9551419,1.6683358,-0.96379715,0.9551419
1715850726.648015,1.6683358,-0.96379715,0.9551419,1.6683358,-0.96379715,0.9551419
1715850726.6500342,1.6683358,-0.96379715,0.9551419,1.6683358,-0.96379715,0.9551419
1715850726.6521978,1.6683358,-0.96379715,0.9551419,1.6683358,-0.96379715,0.9551419
1715850726.6546469,1.6683358,-0.96379715,0.9551419,1.6683358,-0.96379715,0.9551419
1715850726.6568315,1.6683358,-0.96379715,0.9551419,1.6683358,-0.96379715,0.9551419
1715850726.6593993,0.8235819,-0.40772963,1.0616683,0.8235819,-0.40772963,1.0616683
1715850726.6614425,0.8235819,-0.40772963,1.0616683,0.8235819,-0.40772963,1.0616683
1715850726.6637685,0.5636576,0.09827056,0.97218615,0.5636576,0.09827056,0.97218615
1715850726.6658046,0.5636576,0.09827056,0.97218615,0.5636576,0.09827056,0.97218615
1715850726.6677876,0.5636576,0.09827056,0.97218615,0.5636576,0.09827056,0.97218615
1715850726.6698184,0.5636576,0.09827056,0.97218615,0.5636576,0.09827056,0.97218615
1715850726.6717787,0.5636576,0.09827056,0.97218615,0.5636576,0.09827056,0.97218615
1715850726.6746414,0.4571312,0.524376,0.95620716,0.4571312,0.524376,0.95620716
1715850726.6767006,0.4571312,0.524376,0.95620716,0.4571312,0.524376,0.95620716
1715850726.6787858,0.4571312,0.524376,0.95620716,0.4571312,0.524376,0.95620716
1715850726.6808443,0.4571312,0.524376,0.95620716,0.4571312,0.524376,0.95620716
1715850726.6828992,0.4571312,0.524376,0.95620716,0.4571312,0.524376,0.95620716
1715850726.684953,0.4571312,0.524376,0.95620716,0.4571312,0.524376,0.95620716
1715850726.6870174,0.4571312,0.524376,0.95620716,0.4571312,0.524376,0.95620716
1715850726.6890085,0.4571312,0.524376,0.95620716,0.4571312,0.524376,0.95620716
1715850726.6913455,0.37617117,0.859934,1.1298451,0.37617117,0.859934,1.1298451
1715850726.6936345,0.41984698,0.9025445,1.3567463,0.41984698,0.9025445,1.3567463
1715850726.6957626,0.41984698,0.9025445,1.3567463,0.41984698,0.9025445,1.3567463
1715850726.697809,0.41984698,0.9025445,1.3567463,0.41984698,0.9025445,1.3567463
1715850726.6998525,0.41984698,0.9025445,1.3567463,0.41984698,0.9025445,1.3567463
1715850726.7018452,0.41984698,0.9025445,1.3567463,0.41984698,0.9025445,1.3567463
1715850726.7044775,0.54022175,0.6980139,1.53358,0.54022175,0.6980139,1.53358
1715850726.7067828,0.54022175,0.6980139,1.53358,0.54022175,0.6980139,1.53358
1715850726.7090566,0.54022175,0.6980139,1.53358,0.54022175,0.6980139,1.53358
1715850726.711121,0.54022175,0.6980139,1.53358,0.54022175,0.6980139,1.53358
1715850726.713134,0.8576703,0.21544954,1.9149443,0.8576703,0.21544954,1.9149443
1715850726.715168,0.8576703,0.21544954,1.9149443,0.8576703,0.21544954,1.9149443
1715850726.7173622,0.8576703,0.21544954,1.9149443,0.8576703,0.21544954,1.9149443
1715850726.719386,0.8576703,0.21544954,1.9149443,0.8576703,0.21544954,1.9149443
1715850726.721408,0.8576703,0.21544954,1.9149443,0.8576703,0.21544954,1.9149443
1715850726.7233584,0.8576703,0.21544954,1.9149443,0.8576703,0.21544954,1.9149443
1715850726.7257757,0.8576703,0.21544954,1.9149443,0.8576703,0.21544954,1.9149443
1715850726.7279322,0.8576703,0.21544954,1.9149443,0.8576703,0.21544954,1.9149443
1715850726.7300816,0.8576703,0.21544954,1.9149443,0.8576703,0.21544954,1.9149443
1715850726.7321103,0.8576703,0.21544954,1.9149443,0.8576703,0.21544954,1.9149443
1715850726.7341237,0.8576703,0.21544954,1.9149443,0.8576703,0.21544954,1.9149443
1715850726.736187,0.8576703,0.21544954,1.9149443,0.8576703,0.21544954,1.9149443
1715850726.738158,0.8576703,0.21544954,1.9149443,0.8576703,0.21544954,1.9149443
1715850726.740566,0.8576703,0.21544954,1.9149443,0.8576703,0.21544954,1.9149443
1715850726.7431695,1.4851105,-0.070041075,2.1865866,1.4851105,-0.070041075,2.1865866
1715850726.7454782,1.7801886,-0.021038955,2.3772688,1.7801886,-0.021038955,2.3772688
1715850726.7475834,1.7801886,-0.021038955,2.3772688,1.7801886,-0.021038955,2.3772688
1715850726.7496219,1.7801886,-0.021038955,2.3772688,1.7801886,-0.021038955,2.3772688
1715850726.7515879,1.7801886,-0.021038955,2.3772688,1.7801886,-0.021038955,2.3772688
1715850726.7535665,1.7801886,-0.021038955,2.3772688,1.7801886,-0.021038955,2.3772688
1715850726.7557056,1.939978,0.13662004,2.5264056,1.939978,0.13662004,2.5264056
1715850726.7577908,1.939978,0.13662004,2.5264056,1.939978,0.13662004,2.5264056
1715850726.7598293,1.939978,0.13662004,2.5264056,1.939978,0.13662004,2.5264056
1715850726.762248,2.0070896,0.33262855,2.7767425,2.0070896,0.33262855,2.7767425
1715850726.764398,2.0070896,0.33262855,2.7767425,2.0070896,0.33262855,2.7767425
1715850726.766468,2.0070896,0.33262855,2.7767425,2.0070896,0.33262855,2.7767425
1715850726.7684975,2.0070896,0.33262855,2.7767425,2.0070896,0.33262855,2.7767425
1715850726.7705052,2.0070896,0.33262855,2.7767425,2.0070896,0.33262855,2.7767425
1715850726.7725074,2.0070896,0.33262855,2.7767425,2.0070896,0.33262855,2.7767425
1715850726.775204,1.838778,0.45193806,2.8651595,1.838778,0.45193806,2.8651595
1715850726.7772381,1.838778,0.45193806,2.8651595,1.838778,0.45193806,2.8651595
1715850726.7792697,1.838778,0.45193806,2.8651595,1.838778,0.45193806,2.8651595
1715850726.7815232,1.838778,0.45193806,2.8651595,1.838778,0.45193806,2.8651595
1715850726.7836504,1.3913673,0.6138581,2.7170877,1.3913673,0.6138581,2.7170877
1715850726.7857487,1.3913673,0.6138581,2.7170877,1.3913673,0.6138581,2.7170877
1715850726.787821,1.3913673,0.6138581,2.7170877,1.3913673,0.6138581,2.7170877
1715850726.7898798,1.3913673,0.6138581,2.7170877,1.3913673,0.6138581,2.7170877
1715850726.7918599,0.81612504,0.7012097,2.4017699,0.81612504,0.7012097,2.4017699
1715850726.793867,0.81612504,0.7012097,2.4017699,0.81612504,0.7012097,2.4017699
1715850726.7959678,0.81612504,0.7012097,2.4017699,0.81612504,0.7012097,2.4017699
1715850726.7984245,0.81612504,0.7012097,2.4017699,0.81612504,0.7012097,2.4017699
1715850726.8005362,0.81612504,0.7012097,2.4017699,0.81612504,0.7012097,2.4017699
1715850726.802597,0.81612504,0.7012097,2.4017699,0.81612504,0.7012097,2.4017699
1715850726.8046339,0.81612504,0.7012097,2.4017699,0.81612504,0.7012097,2.4017699
1715850726.8066509,0.81612504,0.7012097,2.4017699,0.81612504,0.7012097,2.4017699
1715850726.8087466,0.81612504,0.7012097,2.4017699,0.81612504,0.7012097,2.4017699
1715850726.8107724,0.81612504,0.7012097,2.4017699,0.81612504,0.7012097,2.4017699
1715850726.8129056,0.81612504,0.7012097,2.4017699,0.81612504,0.7012097,2.4017699
1715850726.8149564,0.81612504,0.7012097,2.4017699,0.81612504,0.7012097,2.4017699
1715850726.817396,0.81612504,0.7012097,2.4017699,0.81612504,0.7012097,2.4017699
1715850726.819516,0.81612504,0.7012097,2.4017699,0.81612504,0.7012097,2.4017699
1715850726.8216155,0.81612504,0.7012097,2.4017699,0.81612504,0.7012097,2.4017699
1715850726.823844,0.81612504,0.7012097,2.4017699,0.81612504,0.7012097,2.4017699
1715850726.8258748,0.81612504,0.7012097,2.4017699,0.81612504,0.7012097,2.4017699
1715850726.827894,0.81612504,0.7012097,2.4017699,0.81612504,0.7012097,2.4017699
1715850726.8299372,0.81612504,0.7012097,2.4017699,0.81612504,0.7012097,2.4017699
1715850726.831983,0.81612504,0.7012097,2.4017699,0.81612504,0.7012097,2.4017699
1715850726.8355541,0.5945502,0.5137233,2.0726035,0.5945502,0.5137233,2.0726035
1715850726.837811,0.5945502,0.5137233,2.0726035,0.5945502,0.5137233,2.0726035
1715850726.8399007,0.5945502,0.5137233,2.0726035,0.5945502,0.5137233,2.0726035
1715850726.8418813,0.5945502,0.5137233,2.0726035,0.5945502,0.5137233,2.0726035
1715850726.8443098,0.38575855,0.46046016,1.8584853,0.38575855,0.46046016,1.8584853
1715850726.8463998,0.38575855,0.46046016,1.8584853,0.38575855,0.46046016,1.8584853
1715850726.8484888,0.38575855,0.46046016,1.8584853,0.38575855,0.46046016,1.8584853
1715850726.850756,0.38575855,0.46046016,1.8584853,0.38575855,0.46046016,1.8584853
1715850726.8528957,0.38575855,0.46046016,1.8584853,0.38575855,0.46046016,1.8584853
1715850726.8550348,0.38575855,0.46046016,1.8584853,0.38575855,0.46046016,1.8584853
1715850726.8571723,0.032091063,0.41039276,1.4813821,0.032091063,0.41039276,1.4813821
1715850726.8592412,0.032091063,0.41039276,1.4813821,0.032091063,0.41039276,1.4813821
1715850726.8612716,0.032091063,0.41039276,1.4813821,0.032091063,0.41039276,1.4813821
1715850726.863289,-0.11278477,0.31558433,0.9647293,-0.11278477,0.31558433,0.9647293
1715850726.8654287,-0.11278477,0.31558433,0.9647293,-0.11278477,0.31558433,0.9647293
1715850726.8676372,-0.11278477,0.31558433,0.9647293,-0.11278477,0.31558433,0.9647293
1715850726.8696465,-0.11278477,0.31558433,0.9647293,-0.11278477,0.31558433,0.9647293
1715850726.8717918,-0.11278477,0.31558433,0.9647293,-0.11278477,0.31558433,0.9647293
1715850726.874071,0.11624688,0.13342425,0.14767216,0.11624688,0.13342425,0.14767216
1715850726.8761141,0.11624688,0.13342425,0.14767216,0.11624688,0.13342425,0.14767216
1715850726.8781314,0.11624688,0.13342425,0.14767216,0.11624688,0.13342425,0.14767216
1715850726.880204,0.11624688,0.13342425,0.14767216,0.11624688,0.13342425,0.14767216
1715850726.8828094,0.40599856,0.021571586,-0.4137217,0.40599856,0.021571586,-0.4137217
1715850726.884938,0.40599856,0.021571586,-0.4137217,0.40599856,0.021571586,-0.4137217
1715850726.8869221,0.40599856,0.021571586,-0.4137217,0.40599856,0.021571586,-0.4137217
1715850726.889242,0.40599856,0.021571586,-0.4137217,0.40599856,0.021571586,-0.4137217
1715850726.8912978,0.40599856,0.021571586,-0.4137217,0.40599856,0.021571586,-0.4137217
1715850726.893332,0.40599856,0.021571586,-0.4137217,0.40599856,0.021571586,-0.4137217
1715850726.8953438,0.40599856,0.021571586,-0.4137217,0.40599856,0.021571586,-0.4137217
1715850726.8973455,0.40599856,0.021571586,-0.4137217,0.40599856,0.021571586,-0.4137217
1715850726.8999252,0.40599856,0.021571586,-0.4137217,0.40599856,0.021571586,-0.4137217
1715850726.9022138,0.40599856,0.021571586,-0.4137217,0.40599856,0.021571586,-0.4137217
1715850726.9041855,0.40599856,0.021571586,-0.4137217,0.40599856,0.021571586,-0.4137217
1715850726.9063895,0.40599856,0.021571586,-0.4137217,0.40599856,0.021571586,-0.4137217
1715850726.908482,0.40599856,0.021571586,-0.4137217,0.40599856,0.021571586,-0.4137217
1715850726.9104583,0.40599856,0.021571586,-0.4137217,0.40599856,0.021571586,-0.4137217
1715850726.9125748,0.40599856,0.021571586,-0.4137217,0.40599856,0.021571586,-0.4137217
1715850726.914643,0.40599856,0.021571586,-0.4137217,0.40599856,0.021571586,-0.4137217
1715850726.916718,0.40599856,0.021571586,-0.4137217,0.40599856,0.021571586,-0.4137217
1715850726.9187782,0.40599856,0.021571586,-0.4137217,0.40599856,0.021571586,-0.4137217
1715850726.920811,0.40599856,0.021571586,-0.4137217,0.40599856,0.021571586,-0.4137217
1715850726.9236684,0.95780504,-0.11265162,-1.6387748,0.95780504,-0.11265162,-1.6387748
1715850726.9257739,0.5040028,-0.079628445,-1.3724589,0.5040028,-0.079628445,-1.3724589
1715850726.927874,0.5040028,-0.079628445,-1.3724589,0.5040028,-0.079628445,-1.3724589
1715850726.9299762,0.5040028,-0.079628445,-1.3724589,0.5040028,-0.079628445,-1.3724589
1715850726.9320114,0.5040028,-0.079628445,-1.3724589,0.5040028,-0.079628445,-1.3724589
1715850726.9348853,0.08535424,-0.048735805,-0.8590019,0.08535424,-0.048735805,-0.8590019
1715850726.9369366,0.08535424,-0.048735805,-0.8590019,0.08535424,-0.048735805,-0.8590019
1715850726.938965,0.08535424,-0.048735805,-0.8590019,0.08535424,-0.048735805,-0.8590019
1715850726.9418344,-0.2810964,0.015180005,-0.42437434,-0.2810964,0.015180005,-0.42437434
1715850726.9438927,-0.2810964,0.015180005,-0.42437434,-0.2810964,0.015180005,-0.42437434
1715850726.9459686,-0.2810964,0.015180005,-0.42437434,-0.2810964,0.015180005,-0.42437434
1715850726.9480057,-0.2810964,0.015180005,-0.42437434,-0.2810964,0.015180005,-0.42437434
1715850726.9500346,-0.2810964,0.015180005,-0.42437434,-0.2810964,0.015180005,-0.42437434
1715850726.9520452,-0.2810964,0.015180005,-0.42437434,-0.2810964,0.015180005,-0.42437434
1715850726.9541097,-0.2810964,0.015180005,-0.42437434,-0.2810964,0.015180005,-0.42437434
1715850726.9561305,-0.2810964,0.015180005,-0.42437434,-0.2810964,0.015180005,-0.42437434
1715850726.9582534,-0.5101281,0.17496954,-0.22090903,-0.5101281,0.17496954,-0.22090903
1715850726.9606383,-0.5101281,0.17496954,-0.22090903,-0.5101281,0.17496954,-0.22090903
1715850726.9628835,-0.56232595,0.37843487,-0.23795325,-0.56232595,0.37843487,-0.23795325
1715850726.964963,-0.56232595,0.37843487,-0.23795325,-0.56232595,0.37843487,-0.23795325
1715850726.9669344,-0.56232595,0.37843487,-0.23795325,-0.56232595,0.37843487,-0.23795325
1715850726.9691997,-0.56232595,0.37843487,-0.23795325,-0.56232595,0.37843487,-0.23795325
1715850726.9712698,-0.56232595,0.37843487,-0.23795325,-0.56232595,0.37843487,-0.23795325
1715850726.9734035,-0.51332384,0.44661173,-0.31997854,-0.51332384,0.44661173,-0.31997854
1715850726.9755387,-0.51332384,0.44661173,-0.31997854,-0.51332384,0.44661173,-0.31997854
1715850726.977643,-0.51332384,0.44661173,-0.31997854,-0.51332384,0.44661173,-0.31997854
1715850726.9798346,-0.51332384,0.44661173,-0.31997854,-0.51332384,0.44661173,-0.31997854
1715850726.9818783,-0.51332384,0.44661173,-0.31997854,-0.51332384,0.44661173,-0.31997854
1715850726.9839714,-0.51332384,0.44661173,-0.31997854,-0.51332384,0.44661173,-0.31997854
1715850726.9860141,-0.51332384,0.44661173,-0.31997854,-0.51332384,0.44661173,-0.31997854
1715850726.988024,-0.51332384,0.44661173,-0.31997854,-0.51332384,0.44661173,-0.31997854
1715850726.9900184,-0.51332384,0.44661173,-0.31997854,-0.51332384,0.44661173,-0.31997854
1715850726.9920526,-0.51332384,0.44661173,-0.31997854,-0.51332384,0.44661173,-0.31997854
1715850726.9940195,-0.51332384,0.44661173,-0.31997854,-0.51332384,0.44661173,-0.31997854
1715850726.9962323,-0.51332384,0.44661173,-0.31997854,-0.51332384,0.44661173,-0.31997854
1715850726.9983244,-0.51332384,0.44661173,-0.31997854,-0.51332384,0.44661173,-0.31997854
1715850727.0003405,-0.51332384,0.44661173,-0.31997854,-0.51332384,0.44661173,-0.31997854
1715850727.0023718,-0.51332384,0.44661173,-0.31997854,-0.51332384,0.44661173,-0.31997854
1715850727.004392,-0.51332384,0.44661173,-0.31997854,-0.51332384,0.44661173,-0.31997854
1715850727.0064487,-0.51332384,0.44661173,-0.31997854,-0.51332384,0.44661173,-0.31997854
1715850727.0086105,-0.51332384,0.44661173,-0.31997854,-0.51332384,0.44661173,-0.31997854
1715850727.010614,-0.51332384,0.44661173,-0.31997854,-0.51332384,0.44661173,-0.31997854
1715850727.0138557,0.1886848,0.37417382,-0.6683197,0.1886848,0.37417382,-0.6683197
1715850727.0174174,0.5838976,0.16964322,-0.6640586,0.5838976,0.16964322,-0.6640586
1715850727.019427,0.5838976,0.16964322,-0.6640586,0.5838976,0.16964322,-0.6640586
1715850727.0229752,0.5838976,0.16964322,-0.6640586,0.5838976,0.16964322,-0.6640586
1715850727.0284102,0.56472284,0.1994706,-0.65766704,0.56472284,0.1994706,-0.65766704
1715850727.0322013,0.56472284,0.1994706,-0.65766704,0.56472284,0.1994706,-0.65766704
1715850727.037507,0.32503852,0.27084324,-0.7972166,0.32503852,0.27084324,-0.7972166
1715850727.04164,0.32503852,0.27084324,-0.7972166,0.32503852,0.27084324,-0.7972166
1715850727.0460823,0.122638464,0.24101587,-0.9378314,0.122638464,0.24101587,-0.9378314
1715850727.0499241,0.122638464,0.24101587,-0.9378314,0.122638464,0.24101587,-0.9378314
1715850727.0538056,0.122638464,0.24101587,-0.9378314,0.122638464,0.24101587,-0.9378314
1715850727.0586638,-0.14154689,0.09294424,-1.1072083,-0.14154689,0.09294424,-1.1072083
1715850727.063585,-0.24274692,-0.24687482,-1.2904336,-0.24274692,-0.24687482,-1.2904336
1715850727.067433,-0.24274692,-0.24687482,-1.2904336,-0.24274692,-0.24687482,-1.2904336
1715850727.071285,-0.24274692,-0.24687482,-1.2904336,-0.24274692,-0.24687482,-1.2904336
1715850727.0753725,-0.24274692,-0.24687482,-1.2904336,-0.24274692,-0.24687482,-1.2904336
1715850727.0784268,-0.24274692,-0.24687482,-1.2904336,-0.24274692,-0.24687482,-1.2904336
1715850727.0810018,-0.24274692,-0.24687482,-1.2904336,-0.24274692,-0.24687482,-1.2904336
1715850727.0834103,-0.24274692,-0.24687482,-1.2904336,-0.24274692,-0.24687482,-1.2904336
1715850727.0856988,-0.24274692,-0.24687482,-1.2904336,-0.24274692,-0.24687482,-1.2904336
1715850727.0880857,-0.24274692,-0.24687482,-1.2904336,-0.24274692,-0.24687482,-1.2904336
1715850727.0903115,-0.24274692,-0.24687482,-1.2904336,-0.24274692,-0.24687482,-1.2904336
1715850727.0927954,-0.24274692,-0.24687482,-1.2904336,-0.24274692,-0.24687482,-1.2904336
1715850727.0950787,-0.24274692,-0.24687482,-1.2904336,-0.24274692,-0.24687482,-1.2904336
1715850727.0971715,-0.24274692,-0.24687482,-1.2904336,-0.24274692,-0.24687482,-1.2904336
1715850727.099335,-0.24274692,-0.24687482,-1.2904336,-0.24274692,-0.24687482,-1.2904336
1715850727.1013572,-0.24274692,-0.24687482,-1.2904336,-0.24274692,-0.24687482,-1.2904336
1715850727.104188,0.1535311,-1.2354394,-1.4544842,0.1535311,-1.2354394,-1.4544842
1715850727.1062727,0.1535311,-1.2354394,-1.4544842,0.1535311,-1.2354394,-1.4544842
1715850727.1084492,0.15885742,-1.3313131,-1.360741,0.15885742,-1.3313131,-1.360741
1715850727.1106532,0.15885742,-1.3313131,-1.360741,0.15885742,-1.3313131,-1.360741
1715850727.1128552,0.03954791,-1.2759194,-1.2819115,0.03954791,-1.2759194,-1.2819115
1715850727.1149845,0.03954791,-1.2759194,-1.2819115,0.03954791,-1.2759194,-1.2819115
1715850727.117037,0.03954791,-1.2759194,-1.2819115,0.03954791,-1.2759194,-1.2819115
1715850727.1190348,0.03954791,-1.2759194,-1.2819115,0.03954791,-1.2759194,-1.2819115
1715850727.1210635,0.03954791,-1.2759194,-1.2819115,0.03954791,-1.2759194,-1.2819115
1715850727.1231618,0.03954791,-1.2759194,-1.2819115,0.03954791,-1.2759194,-1.2819115
1715850727.1254237,-0.09574056,-1.1757846,-1.2765852,-0.09574056,-1.1757846,-1.2765852
1715850727.1276603,-0.09574056,-1.1757846,-1.2765852,-0.09574056,-1.1757846,-1.2765852
1715850727.1297736,-0.09574056,-1.1757846,-1.2765852,-0.09574056,-1.1757846,-1.2765852
1715850727.1318276,-0.33222905,-0.991494,-1.4779199,-0.33222905,-0.991494,-1.4779199
1715850727.1338744,-0.33222905,-0.991494,-1.4779199,-0.33222905,-0.991494,-1.4779199
1715850727.1359143,-0.33222905,-0.991494,-1.4779199,-0.33222905,-0.991494,-1.4779199
1715850727.1379335,-0.33222905,-0.991494,-1.4779199,-0.33222905,-0.991494,-1.4779199
1715850727.1399958,-0.33222905,-0.991494,-1.4779199,-0.33222905,-0.991494,-1.4779199
1715850727.1419811,-0.33222905,-0.991494,-1.4779199,-0.33222905,-0.991494,-1.4779199
1715850727.1449418,-0.46112594,-0.81252974,-1.728257,-0.46112594,-0.81252974,-1.728257
1715850727.1470861,-0.46112594,-0.81252974,-1.728257,-0.46112594,-0.81252974,-1.728257
1715850727.1491427,-0.46112594,-0.81252974,-1.728257,-0.46112594,-0.81252974,-1.728257
1715850727.1511652,-0.46112594,-0.81252974,-1.728257,-0.46112594,-0.81252974,-1.728257
1715850727.153214,-0.46112594,-0.81252974,-1.728257,-0.46112594,-0.81252974,-1.728257
1715850727.1552398,-0.46112594,-0.81252974,-1.728257,-0.46112594,-0.81252974,-1.728257
1715850727.1573038,-0.46112594,-0.81252974,-1.728257,-0.46112594,-0.81252974,-1.728257
1715850727.1593118,-0.46112594,-0.81252974,-1.728257,-0.46112594,-0.81252974,-1.728257
1715850727.162232,-0.485627,-0.70387286,-1.906156,-0.485627,-0.70387286,-1.906156
1715850727.1643813,-0.485627,-0.70387286,-1.906156,-0.485627,-0.70387286,-1.906156
1715850727.1664348,-0.485627,-0.70387286,-1.906156,-0.485627,-0.70387286,-1.906156
1715850727.1684933,-0.485627,-0.70387286,-1.906156,-0.485627,-0.70387286,-1.906156
1715850727.1705205,-0.485627,-0.70387286,-1.906156,-0.485627,-0.70387286,-1.906156
1715850727.1725469,-0.485627,-0.70387286,-1.906156,-0.485627,-0.70387286,-1.906156
1715850727.1746325,-0.485627,-0.70387286,-1.906156,-0.485627,-0.70387286,-1.906156
1715850727.1766152,-0.485627,-0.70387286,-1.906156,-0.485627,-0.70387286,-1.906156
1715850727.17888,-0.485627,-0.70387286,-1.906156,-0.485627,-0.70387286,-1.906156
1715850727.1810336,-0.485627,-0.70387286,-1.906156,-0.485627,-0.70387286,-1.906156
1715850727.1830962,-0.485627,-0.70387286,-1.906156,-0.485627,-0.70387286,-1.906156
1715850727.1851366,-0.485627,-0.70387286,-1.906156,-0.485627,-0.70387286,-1.906156
1715850727.187149,-0.485627,-0.70387286,-1.906156,-0.485627,-0.70387286,-1.906156
1715850727.1891863,-0.485627,-0.70387286,-1.906156,-0.485627,-0.70387286,-1.906156
1715850727.19125,-0.485627,-0.70387286,-1.906156,-0.485627,-0.70387286,-1.906156
1715850727.1933327,-0.485627,-0.70387286,-1.906156,-0.485627,-0.70387286,-1.906156
1715850727.196779,-0.55167335,-0.5398223,-1.1029472,-0.55167335,-0.5398223,-1.1029472
1715850727.1990185,-0.55167335,-0.5398223,-1.1029472,-0.55167335,-0.5398223,-1.1029472
1715850727.2028012,-0.55167335,-0.5398223,-1.1029472,-0.55167335,-0.5398223,-1.1029472
1715850727.2085154,-0.34394696,-0.52597386,-0.89202505,-0.34394696,-0.52597386,-0.89202505
1715850727.212409,-0.34394696,-0.52597386,-0.89202505,-0.34394696,-0.52597386,-0.89202505
1715850727.2168243,-0.12876374,-0.44501385,-0.88989455,-0.12876374,-0.44501385,-0.88989455
1715850727.2198365,-0.12876374,-0.44501385,-0.88989455,-0.12876374,-0.44501385,-0.88989455
1715850727.222765,-0.12876374,-0.44501385,-0.88989455,-0.12876374,-0.44501385,-0.88989455
1715850727.2257504,-0.12876374,-0.44501385,-0.88989455,-0.12876374,-0.44501385,-0.88989455
1715850727.2290287,0.037417382,-0.35872748,-0.9612672,0.037417382,-0.35872748,-0.9612672
1715850727.2337847,0.2589922,-0.2564622,-1.0816419,0.2589922,-0.2564622,-1.0816419
1715850727.2374341,0.2589922,-0.2564622,-1.0816419,0.2589922,-0.2564622,-1.0816419
1715850727.2402635,0.2589922,-0.2564622,-1.0816419,0.2589922,-0.2564622,-1.0816419
1715850727.2440386,0.34847432,-0.23835272,-1.1317093,0.34847432,-0.23835272,-1.1317093
1715850727.2470622,0.34847432,-0.23835272,-1.1317093,0.34847432,-0.23835272,-1.1317093
1715850727.2500057,0.34847432,-0.23835272,-1.1317093,0.34847432,-0.23835272,-1.1317093
1715850727.2537205,0.4304996,-0.33529168,-1.2009515,0.4304996,-0.33529168,-1.2009515
1715850727.2566462,0.4304996,-0.33529168,-1.2009515,0.4304996,-0.33529168,-1.2009515
1715850727.2594068,0.4304996,-0.33529168,-1.2009515,0.4304996,-0.33529168,-1.2009515
1715850727.2619822,0.4304996,-0.33529168,-1.2009515,0.4304996,-0.33529168,-1.2009515
1715850727.2644951,0.4304996,-0.33529168,-1.2009515,0.4304996,-0.33529168,-1.2009515
1715850727.2669647,0.4304996,-0.33529168,-1.2009515,0.4304996,-0.33529168,-1.2009515
1715850727.269525,0.4304996,-0.33529168,-1.2009515,0.4304996,-0.33529168,-1.2009515
1715850727.2721283,0.4304996,-0.33529168,-1.2009515,0.4304996,-0.33529168,-1.2009515
1715850727.2746708,0.4304996,-0.33529168,-1.2009515,0.4304996,-0.33529168,-1.2009515
1715850727.277153,0.4304996,-0.33529168,-1.2009515,0.4304996,-0.33529168,-1.2009515
1715850727.279637,0.4304996,-0.33529168,-1.2009515,0.4304996,-0.33529168,-1.2009515
1715850727.2840447,0.37617117,-0.68150234,-1.2712588,0.37617117,-0.68150234,-1.2712588
1715850727.2864685,0.37617117,-0.68150234,-1.2712588,0.37617117,-0.68150234,-1.2712588
1715850727.2892284,0.37617117,-0.68150234,-1.2712588,0.37617117,-0.68150234,-1.2712588
1715850727.2916331,0.37617117,-0.68150234,-1.2712588,0.37617117,-0.68150234,-1.2712588
1715850727.2940826,0.27816695,-0.631435,-1.2094736,0.27816695,-0.631435,-1.2094736
1715850727.296652,0.27816695,-0.631435,-1.2094736,0.27816695,-0.631435,-1.2094736
1715850727.2991292,0.27816695,-0.631435,-1.2094736,0.27816695,-0.631435,-1.2094736
1715850727.3016355,0.27816695,-0.631435,-1.2094736,0.27816695,-0.631435,-1.2094736
1715850727.304332,-0.058456335,-0.38003275,-0.8994819,-0.058456335,-0.38003275,-0.8994819
1715850727.306933,-0.058456335,-0.38003275,-0.8994819,-0.058456335,-0.38003275,-0.8994819
1715850727.3095121,-0.058456335,-0.38003275,-0.8994819,-0.058456335,-0.38003275,-0.8994819
1715850727.3120337,-0.058456335,-0.38003275,-0.8994819,-0.058456335,-0.38003275,-0.8994819
1715850727.3145142,-0.15646058,-0.2745717,-0.7886945,-0.15646058,-0.2745717,-0.7886945
1715850727.317046,-0.15646058,-0.2745717,-0.7886945,-0.15646058,-0.2745717,-0.7886945
1715850727.3194413,-0.15646058,-0.2745717,-0.7886945,-0.15646058,-0.2745717,-0.7886945
1715850727.3219342,-0.15646058,-0.2745717,-0.7886945,-0.15646058,-0.2745717,-0.7886945
1715850727.324967,-0.15646058,-0.2745717,-0.7886945,-0.15646058,-0.2745717,-0.7886945
1715850727.3279812,-0.1735048,-0.24900535,-0.7886945,-0.1735048,-0.24900535,-0.7886945
1715850727.3305793,-0.1735048,-0.24900535,-0.7886945,-0.1735048,-0.24900535,-0.7886945
1715850727.3333106,-0.19374481,-0.21065587,-0.7823029,-0.19374481,-0.21065587,-0.7823029
1715850727.3357854,-0.19374481,-0.21065587,-0.7823029,-0.19374481,-0.21065587,-0.7823029
1715850727.3382895,-0.19374481,-0.21065587,-0.7823029,-0.19374481,-0.21065587,-0.7823029
1715850727.340749,-0.19374481,-0.21065587,-0.7823029,-0.19374481,-0.21065587,-0.7823029
1715850727.3437262,-0.19374481,-0.21065587,-0.7823029,-0.19374481,-0.21065587,-0.7823029
1715850727.3464162,-0.19374481,-0.21065587,-0.7823029,-0.19374481,-0.21065587,-0.7823029
1715850727.3488903,-0.20865849,-0.15526216,-0.750345,-0.20865849,-0.15526216,-0.750345
1715850727.3512914,-0.20865849,-0.15526216,-0.750345,-0.20865849,-0.15526216,-0.750345
1715850727.353921,-0.20865849,-0.15526216,-0.750345,-0.20865849,-0.15526216,-0.750345
1715850727.3570745,-0.14261216,-0.101998985,-0.63742703,-0.14261216,-0.101998985,-0.63742703
1715850727.3595383,-0.14261216,-0.101998985,-0.63742703,-0.14261216,-0.101998985,-0.63742703
1715850727.3631,0.035286855,-0.23835272,-0.57670707,0.035286855,-0.23835272,-0.57670707
1715850727.3657017,0.035286855,-0.23835272,-0.57670707,0.035286855,-0.23835272,-0.57670707
1715850727.3681471,0.035286855,-0.23835272,-0.57670707,0.035286855,-0.23835272,-0.57670707
1715850727.3705757,0.035286855,-0.23835272,-0.57670707,0.035286855,-0.23835272,-0.57670707
1715850727.3730037,0.035286855,-0.23835272,-0.57670707,0.035286855,-0.23835272,-0.57670707
1715850727.3753977,0.035286855,-0.23835272,-0.57670707,0.035286855,-0.23835272,-0.57670707
1715850727.3782034,0.14713952,-0.38322854,-0.46911544,0.14713952,-0.38322854,-0.46911544
1715850727.3810015,0.14713952,-0.38322854,-0.46911544,0.14713952,-0.38322854,-0.46911544
1715850727.3837254,0.1886848,-0.57497597,-0.14101426,0.1886848,-0.57497597,-0.14101426
1715850727.386236,0.1886848,-0.57497597,-0.14101426,0.1886848,-0.57497597,-0.14101426
1715850727.388705,0.1886848,-0.57497597,-0.14101426,0.1886848,-0.57497597,-0.14101426
1715850727.391155,0.1886848,-0.57497597,-0.14101426,0.1886848,-0.57497597,-0.14101426
1715850727.3936539,0.1886848,-0.57497597,-0.14101426,0.1886848,-0.57497597,-0.14101426
1715850727.3963046,0.14607427,-0.5568665,0.09014793,0.14607427,-0.5568665,0.09014793
1715850727.3988245,0.14607427,-0.5568665,0.09014793,0.14607427,-0.5568665,0.09014793
1715850727.4015772,0.14607427,-0.5568665,0.09014793,0.14607427,-0.5568665,0.09014793
1715850727.4050984,0.09707214,-0.3438138,0.34048486,0.09707214,-0.3438138,0.34048486
1715850727.407552,0.09707214,-0.3438138,0.34048486,0.09707214,-0.3438138,0.34048486
1715850727.4100192,0.09707214,-0.3438138,0.34048486,0.09707214,-0.3438138,0.34048486
1715850727.4127493,0.12903005,-0.22876534,0.37244275,0.12903005,-0.22876534,0.37244275
1715850727.4153018,0.12903005,-0.22876534,0.37244275,0.12903005,-0.22876534,0.37244275
1715850727.417813,0.12903005,-0.22876534,0.37244275,0.12903005,-0.22876534,0.37244275
1715850727.4204884,0.12903005,-0.22876534,0.37244275,0.12903005,-0.22876534,0.37244275
1715850727.423003,0.12903005,-0.22876534,0.37244275,0.12903005,-0.22876534,0.37244275
1715850727.4254851,0.12903005,-0.22876534,0.37244275,0.12903005,-0.22876534,0.37244275
1715850727.4279356,0.12903005,-0.22876534,0.37244275,0.12903005,-0.22876534,0.37244275
1715850727.4305134,0.26005745,-0.19254638,0.44061962,0.26005745,-0.19254638,0.44061962
1715850727.4334924,0.3324954,-0.25965798,0.6110618,0.3324954,-0.25965798,0.6110618
1715850727.4359584,0.3324954,-0.25965798,0.6110618,0.3324954,-0.25965798,0.6110618
1715850727.438627,0.3324954,-0.25965798,0.6110618,0.3324954,-0.25965798,0.6110618
1715850727.441156,0.3324954,-0.25965798,0.6110618,0.3324954,-0.25965798,0.6110618
1715850727.4435978,0.3324954,-0.25965798,0.6110618,0.3324954,-0.25965798,0.6110618
1715850727.4471939,0.2994722,-0.30226853,0.75806814,0.2994722,-0.30226853,0.75806814
1715850727.4497652,0.2994722,-0.30226853,0.75806814,0.2994722,-0.30226853,0.75806814
1715850727.4522672,0.2994722,-0.30226853,0.75806814,0.2994722,-0.30226853,0.75806814
1715850727.4554427,0.07576687,-0.40133804,1.0712557,0.07576687,-0.40133804,1.0712557
1715850727.4580822,0.07576687,-0.40133804,1.0712557,0.07576687,-0.40133804,1.0712557
1715850727.4606118,0.07576687,-0.40133804,1.0712557,0.07576687,-0.40133804,1.0712557
1715850727.463135,-0.09254477,-0.59308547,1.0893651,-0.09254477,-0.59308547,1.0893651
1715850727.4656558,-0.09254477,-0.59308547,1.0893651,-0.09254477,-0.59308547,1.0893651
1715850727.4681191,-0.09254477,-0.59308547,1.0893651,-0.09254477,-0.59308547,1.0893651
1715850727.4706192,-0.09254477,-0.59308547,1.0893651,-0.09254477,-0.59308547,1.0893651
1715850727.4731996,-0.09254477,-0.59308547,1.0893651,-0.09254477,-0.59308547,1.0893651
1715850727.4759197,-0.09254477,-0.59308547,1.0893651,-0.09254477,-0.59308547,1.0893651
1715850727.4784904,-0.09254477,-0.59308547,1.0893651,-0.09254477,-0.59308547,1.0893651
1715850727.480947,-0.09254477,-0.59308547,1.0893651,-0.09254477,-0.59308547,1.0893651
1715850727.4833786,-0.09254477,-0.59308547,1.0893651,-0.09254477,-0.59308547,1.0893651
1715850727.4858634,-0.09254477,-0.59308547,1.0893651,-0.09254477,-0.59308547,1.0893651
1715850727.4883075,-0.09254477,-0.59308547,1.0893651,-0.09254477,-0.59308547,1.0893651
1715850727.4907615,-0.09254477,-0.59308547,1.0893651,-0.09254477,-0.59308547,1.0893651
1715850727.4946427,-0.1884185,-0.6538055,0.76978606,-0.1884185,-0.6538055,0.76978606
1715850727.498262,-0.22037639,-0.5696497,0.72078395,-0.22037639,-0.5696497,0.72078395
1715850727.5005908,-0.22037639,-0.5696497,0.72078395,-0.22037639,-0.5696497,0.72078395
1715850727.502872,-0.22037639,-0.5696497,0.72078395,-0.22037639,-0.5696497,0.72078395
1715850727.5051377,-0.31305432,-0.1073253,0.6728471,-0.31305432,-0.1073253,0.6728471
1715850727.50745,-0.31305432,-0.1073253,0.6728471,-0.31305432,-0.1073253,0.6728471
1715850727.5098164,-0.31305432,-0.1073253,0.6728471,-0.31305432,-0.1073253,0.6728471
1715850727.5120964,-0.31305432,-0.1073253,0.6728471,-0.31305432,-0.1073253,0.6728471
1715850727.514695,-0.30879328,0.23888534,0.69202185,-0.30879328,0.23888534,0.69202185
1715850727.517073,-0.30879328,0.23888534,0.69202185,-0.30879328,0.23888534,0.69202185
1715850727.5192876,-0.30879328,0.23888534,0.69202185,-0.30879328,0.23888534,0.69202185
1715850727.5215197,-0.30879328,0.23888534,0.69202185,-0.30879328,0.23888534,0.69202185
1715850727.5236526,-0.30879328,0.23888534,0.69202185,-0.30879328,0.23888534,0.69202185
1715850727.5258641,-0.30879328,0.23888534,0.69202185,-0.30879328,0.23888534,0.69202185
1715850727.5280724,-0.30879328,0.23888534,0.69202185,-0.30879328,0.23888534,0.69202185
1715850727.5305433,-0.08934898,0.20160112,0.72717553,-0.08934898,0.20160112,0.72717553
1715850727.5339344,0.32184273,-0.22556955,0.8507461,0.32184273,-0.22556955,0.8507461
1715850727.537602,0.32184273,-0.22556955,0.8507461,0.32184273,-0.22556955,0.8507461
1715850727.541801,0.32184273,-0.22556955,0.8507461,0.32184273,-0.22556955,0.8507461
1715850727.5478945,0.66272706,-0.70813394,0.9551419,0.66272706,-0.70813394,0.9551419
1715850727.5524826,0.66272706,-0.70813394,0.9551419,0.66272706,-0.70813394,0.9551419
1715850727.5565867,0.66272706,-0.70813394,0.9551419,0.66272706,-0.70813394,0.9551419
1715850727.560277,0.66272706,-0.70813394,0.9551419,0.66272706,-0.70813394,0.9551419
1715850727.5632873,0.66272706,-0.70813394,0.9551419,0.66272706,-0.70813394,0.9551419
1715850727.5660682,0.66272706,-0.70813394,0.9551419,0.66272706,-0.70813394,0.9551419
1715850727.5685759,0.66272706,-0.70813394,0.9551419,0.66272706,-0.70813394,0.9551419
1715850727.5711575,0.66272706,-0.70813394,0.9551419,0.66272706,-0.70813394,0.9551419
1715850727.5734782,0.66272706,-0.70813394,0.9551419,0.66272706,-0.70813394,0.9551419
1715850727.5757563,0.66272706,-0.70813394,0.9551419,0.66272706,-0.70813394,0.9551419
1715850727.5779588,0.66272706,-0.70813394,0.9551419,0.66272706,-0.70813394,0.9551419
1715850727.580199,0.66272706,-0.70813394,0.9551419,0.66272706,-0.70813394,0.9551419
1715850727.5824904,0.66272706,-0.70813394,0.9551419,0.66272706,-0.70813394,0.9551419
1715850727.5853603,0.83636504,-1.3174647,0.7080008,0.83636504,-1.3174647,0.7080008
1715850727.587614,0.83636504,-1.3174647,0.7080008,0.83636504,-1.3174647,0.7080008
1715850727.5900471,0.83636504,-1.3174647,0.7080008,0.83636504,-1.3174647,0.7080008
1715850727.5929346,-0.54315126,0.35819486,-0.98470294,-0.54315126,0.35819486,-0.98470294
1715850727.5952282,-0.54315126,0.35819486,-0.98470294,-0.54315126,0.35819486,-0.98470294
1715850727.5975525,-1.3026842,1.2732562,-1.7761937,-1.3026842,1.2732562,-1.7761937
1715850727.5997922,-1.3026842,1.2732562,-1.7761937,-1.3026842,1.2732562,-1.7761937
1715850727.6020172,-1.3026842,1.2732562,-1.7761937,-1.3026842,1.2732562,-1.7761937
1715850727.6043699,-2.3562298,2.218145,-2.4249392,-2.3562298,2.218145,-2.4249392
1715850727.6065943,-2.3562298,2.218145,-2.4249392,-2.3562298,2.218145,-2.4249392
1715850727.609168,-2.3562298,2.218145,-2.4249392,-2.3562298,2.218145,-2.4249392
1715850727.611398,-2.3562298,2.218145,-2.4249392,-2.3562298,2.218145,-2.4249392
1715850727.613778,-2.3562298,2.218145,-2.4249392,-2.3562298,2.218145,-2.4249392
1715850727.6160378,-2.640655,2.1126838,-2.1554277,-2.640655,2.1126838,-2.1554277
1715850727.6184347,-2.640655,2.1126838,-2.1554277,-2.640655,2.1126838,-2.1554277
1715850727.6206877,-2.640655,2.1126838,-2.1554277,-2.640655,2.1126838,-2.1554277
1715850727.6230576,-2.481931,1.5331805,-1.59936,-2.481931,1.5331805,-1.59936
1715850727.6253207,-2.481931,1.5331805,-1.59936,-2.481931,1.5331805,-1.59936
1715850727.6277509,-2.481931,1.5331805,-1.59936,-2.481931,1.5331805,-1.59936
1715850727.6301265,-2.481931,1.5331805,-1.59936,-2.481931,1.5331805,-1.59936
1715850727.6323118,-2.481931,1.5331805,-1.59936,-2.481931,1.5331805,-1.59936
1715850727.634602,-1.6829832,0.117445305,-0.4904207,-1.6829832,0.117445305,-0.4904207
1715850727.6368165,-1.6829832,0.117445305,-0.4904207,-1.6829832,0.117445305,-0.4904207
1715850727.6390436,-1.6829832,0.117445305,-0.4904207,-1.6829832,0.117445305,-0.4904207
1715850727.641328,-1.6829832,0.117445305,-0.4904207,-1.6829832,0.117445305,-0.4904207
1715850727.6434674,-1.6829832,0.117445305,-0.4904207,-1.6829832,0.117445305,-0.4904207
1715850727.6463063,-1.6829832,0.117445305,-0.4904207,-1.6829832,0.117445305,-0.4904207
1715850727.648596,-1.6829832,0.117445305,-0.4904207,-1.6829832,0.117445305,-0.4904207
1715850727.6508188,-1.6829832,0.117445305,-0.4904207,-1.6829832,0.117445305,-0.4904207
1715850727.6530046,-1.6829832,0.117445305,-0.4904207,-1.6829832,0.117445305,-0.4904207
1715850727.6551929,-1.6829832,0.117445305,-0.4904207,-1.6829832,0.117445305,-0.4904207
1715850727.657491,-1.6829832,0.117445305,-0.4904207,-1.6829832,0.117445305,-0.4904207
1715850727.6603603,-1.6829832,0.117445305,-0.4904207,-1.6829832,0.117445305,-0.4904207
1715850727.6627116,-1.6829832,0.117445305,-0.4904207,-1.6829832,0.117445305,-0.4904207
1715850727.6651094,-1.6829832,0.117445305,-0.4904207,-1.6829832,0.117445305,-0.4904207
1715850727.6673415,-1.6829832,0.117445305,-0.4904207,-1.6829832,0.117445305,-0.4904207
1715850727.6695912,-1.6829832,0.117445305,-0.4904207,-1.6829832,0.117445305,-0.4904207
1715850727.6727836,-0.1617869,-1.2183951,0.5972134,-0.1617869,-1.2183951,0.5972134
1715850727.6755772,0.17590164,-0.6687192,0.43103224,0.17590164,-0.6687192,0.43103224
1715850727.6777802,0.17590164,-0.6687192,0.43103224,0.17590164,-0.6687192,0.43103224
1715850727.6801085,0.17590164,-0.6687192,0.43103224,0.17590164,-0.6687192,0.43103224
1715850727.6830113,-0.028628957,-0.2884201,0.18495639,-0.028628957,-0.2884201,0.18495639
1715850727.685527,-0.028628957,-0.2884201,0.18495639,-0.028628957,-0.2884201,0.18495639
1715850727.6877701,-0.028628957,-0.2884201,0.18495639,-0.028628957,-0.2884201,0.18495639
1715850727.6899664,-0.028628957,-0.2884201,0.18495639,-0.028628957,-0.2884201,0.18495639
1715850727.6922126,-0.028628957,-0.2884201,0.18495639,-0.028628957,-0.2884201,0.18495639
1715850727.6944077,-0.028628957,-0.2884201,0.18495639,-0.028628957,-0.2884201,0.18495639
1715850727.6968405,-0.028628957,-0.2884201,0.18495639,-0.028628957,-0.2884201,0.18495639
1715850727.70014,-0.35033855,0.027963167,-0.07816371,-0.35033855,0.027963167,-0.07816371
1715850727.7027223,-0.53356385,0.11318425,-0.23475745,-0.53356385,0.11318425,-0.23475745
1715850727.7053373,-0.53356385,0.11318425,-0.23475745,-0.53356385,0.11318425,-0.23475745
1715850727.7075372,-0.53356385,0.11318425,-0.23475745,-0.53356385,0.11318425,-0.23475745
1715850727.7097208,-0.53356385,0.11318425,-0.23475745,-0.53356385,0.11318425,-0.23475745
1715850727.7120154,-0.53356385,0.11318425,-0.23475745,-0.53356385,0.11318425,-0.23475745
1715850727.7143378,-0.4600607,0.015180005,-0.33063117,-0.4600607,0.015180005,-0.33063117
1715850727.7166426,-0.4600607,0.015180005,-0.33063117,-0.4600607,0.015180005,-0.33063117
1715850727.7188632,-0.4600607,0.015180005,-0.33063117,-0.4600607,0.015180005,-0.33063117
1715850727.721362,-0.4600607,0.015180005,-0.33063117,-0.4600607,0.015180005,-0.33063117
1715850727.7237294,-0.28855327,-0.07536739,-0.3647196,-0.28855327,-0.07536739,-0.3647196
1715850727.726054,-0.28855327,-0.07536739,-0.3647196,-0.28855327,-0.07536739,-0.3647196
1715850727.7283475,-0.28855327,-0.07536739,-0.3647196,-0.28855327,-0.07536739,-0.3647196
1715850727.730577,-0.28855327,-0.07536739,-0.3647196,-0.28855327,-0.07536739,-0.3647196
1715850727.7328017,-0.28855327,-0.07536739,-0.3647196,-0.28855327,-0.07536739,-0.3647196
1715850727.735024,-0.28855327,-0.07536739,-0.3647196,-0.28855327,-0.07536739,-0.3647196
1715850727.7372675,-0.28855327,-0.07536739,-0.3647196,-0.28855327,-0.07536739,-0.3647196
1715850727.7397609,-0.28855327,-0.07536739,-0.3647196,-0.28855327,-0.07536739,-0.3647196
1715850727.7423673,-0.28855327,-0.07536739,-0.3647196,-0.28855327,-0.07536739,-0.3647196
1715850727.744651,-0.28855327,-0.07536739,-0.3647196,-0.28855327,-0.07536739,-0.3647196
1715850727.7469184,-0.28855327,-0.07536739,-0.3647196,-0.28855327,-0.07536739,-0.3647196
1715850727.7491484,-0.28855327,-0.07536739,-0.3647196,-0.28855327,-0.07536739,-0.3647196
1715850727.7512922,-0.28855327,-0.07536739,-0.3647196,-0.28855327,-0.07536739,-0.3647196
1715850727.7535748,-0.28855327,-0.07536739,-0.3647196,-0.28855327,-0.07536739,-0.3647196
1715850727.7557786,-0.28855327,-0.07536739,-0.3647196,-0.28855327,-0.07536739,-0.3647196
1715850727.758546,-0.28855327,-0.07536739,-0.3647196,-0.28855327,-0.07536739,-0.3647196
1715850727.760961,-0.28855327,-0.07536739,-0.3647196,-0.28855327,-0.07536739,-0.3647196
1715850727.763865,0.21531639,-0.19041586,-0.34767538,0.21531639,-0.19041586,-0.34767538
1715850727.7670171,0.37936696,-0.033822116,-0.25180167,0.37936696,-0.033822116,-0.25180167
1715850727.7692516,0.37936696,-0.033822116,-0.25180167,0.37936696,-0.033822116,-0.25180167
1715850727.7713876,0.37936696,-0.033822116,-0.25180167,0.37936696,-0.033822116,-0.25180167
1715850727.7740872,0.37723646,0.024767376,-0.27843326,0.37723646,0.024767376,-0.27843326
1715850727.7764945,0.37723646,0.024767376,-0.27843326,0.37723646,0.024767376,-0.27843326
1715850727.7789729,0.37723646,0.024767376,-0.27843326,0.37723646,0.024767376,-0.27843326
1715850727.7812736,0.37723646,0.024767376,-0.27843326,0.37723646,0.024767376,-0.27843326
1715850727.7835062,0.35167012,0.016245268,-0.34234905,0.35167012,0.016245268,-0.34234905
1715850727.7857385,0.35167012,0.016245268,-0.34234905,0.35167012,0.016245268,-0.34234905
1715850727.787937,0.35167012,0.016245268,-0.34234905,0.35167012,0.016245268,-0.34234905
1715850727.7901728,0.35167012,0.016245268,-0.34234905,0.35167012,0.016245268,-0.34234905
1715850727.792324,0.35167012,0.016245268,-0.34234905,0.35167012,0.016245268,-0.34234905
1715850727.7945418,0.35167012,0.016245268,-0.34234905,0.35167012,0.016245268,-0.34234905
1715850727.7971807,0.35167012,0.016245268,-0.34234905,0.35167012,0.016245268,-0.34234905
1715850727.8002963,0.31012484,0.0055926335,-0.414787,0.31012484,0.0055926335,-0.414787
1715850727.8026805,0.23981746,-0.003994738,-0.52450913,0.23981746,-0.003994738,-0.52450913
1715850727.8049738,0.23981746,-0.003994738,-0.52450913,0.23981746,-0.003994738,-0.52450913
1715850727.807419,0.23981746,-0.003994738,-0.52450913,0.23981746,-0.003994738,-0.52450913
1715850727.809708,0.23981746,-0.003994738,-0.52450913,0.23981746,-0.003994738,-0.52450913
1715850727.8120801,0.23981746,-0.003994738,-0.52450913,0.23981746,-0.003994738,-0.52450913
1715850727.8149617,0.16951005,-0.008255793,-0.6107955,0.16951005,-0.008255793,-0.6107955
1715850727.8172257,0.16951005,-0.008255793,-0.6107955,0.16951005,-0.008255793,-0.6107955
1715850727.8193448,0.16951005,-0.008255793,-0.6107955,0.16951005,-0.008255793,-0.6107955
1715850727.8215947,0.16951005,-0.008255793,-0.6107955,0.16951005,-0.008255793,-0.6107955
1715850727.823791,0.16951005,-0.008255793,-0.6107955,0.16951005,-0.008255793,-0.6107955
1715850727.8260996,0.16951005,-0.008255793,-0.6107955,0.16951005,-0.008255793,-0.6107955
1715850727.8284528,0.16951005,-0.008255793,-0.6107955,0.16951005,-0.008255793,-0.6107955
1715850727.8309896,0.16951005,-0.008255793,-0.6107955,0.16951005,-0.008255793,-0.6107955
1715850727.833549,0.16951005,-0.008255793,-0.6107955,0.16951005,-0.008255793,-0.6107955
1715850727.8358397,0.16951005,-0.008255793,-0.6107955,0.16951005,-0.008255793,-0.6107955
1715850727.8384023,0.16951005,-0.008255793,-0.6107955,0.16951005,-0.008255793,-0.6107955
1715850727.8408005,0.16951005,-0.008255793,-0.6107955,0.16951005,-0.008255793,-0.6107955
1715850727.8450944,-0.09787109,0.04394212,-0.80467343,-0.09787109,0.04394212,-0.80467343
1715850727.8473399,-0.09787109,0.04394212,-0.80467343,-0.09787109,0.04394212,-0.80467343
1715850727.8495367,-0.09787109,0.04394212,-0.80467343,-0.09787109,0.04394212,-0.80467343
1715850727.851851,-0.09787109,0.04394212,-0.80467343,-0.09787109,0.04394212,-0.80467343
1715850727.8538399,-0.09787109,0.04394212,-0.80467343,-0.09787109,0.04394212,-0.80467343
1715850727.8557863,-0.09787109,0.04394212,-0.80467343,-0.09787109,0.04394212,-0.80467343
1715850727.857707,-0.09787109,0.04394212,-0.80467343,-0.09787109,0.04394212,-0.80467343
1715850727.8595457,-0.09787109,0.04394212,-0.80467343,-0.09787109,0.04394212,-0.80467343
1715850727.8615372,-0.09787109,0.04394212,-0.80467343,-0.09787109,0.04394212,-0.80467343
1715850727.8634293,-0.09787109,0.04394212,-0.80467343,-0.09787109,0.04394212,-0.80467343
1715850727.8655453,-0.09787109,0.04394212,-0.80467343,-0.09787109,0.04394212,-0.80467343
1715850727.8674371,-0.09787109,0.04394212,-0.80467343,-0.09787109,0.04394212,-0.80467343
1715850727.8696845,-0.09787109,0.04394212,-0.80467343,-0.09787109,0.04394212,-0.80467343
1715850727.8736641,0.2792322,-0.05938844,-0.82278293,0.2792322,-0.05938844,-0.82278293
1715850727.8755546,0.2792322,-0.05938844,-0.82278293,0.2792322,-0.05938844,-0.82278293
1715850727.8774922,0.2792322,-0.05938844,-0.82278293,0.2792322,-0.05938844,-0.82278293
1715850727.87938,0.2792322,-0.05938844,-0.82278293,0.2792322,-0.05938844,-0.82278293
1715850727.8812962,0.2792322,-0.05938844,-0.82278293,0.2792322,-0.05938844,-0.82278293
1715850727.883577,0.322908,-0.121173725,-0.7993471,0.322908,-0.121173725,-0.7993471
1715850727.885523,0.322908,-0.121173725,-0.7993471,0.322908,-0.121173725,-0.7993471
1715850727.8876805,0.322908,-0.121173725,-0.7993471,0.322908,-0.121173725,-0.7993471
1715850727.889747,0.322908,-0.121173725,-0.7993471,0.322908,-0.121173725,-0.7993471
1715850727.8916726,0.322908,-0.121173725,-0.7993471,0.322908,-0.121173725,-0.7993471
1715850727.8935847,0.322908,-0.121173725,-0.7993471,0.322908,-0.121173725,-0.7993471
1715850727.895526,0.322908,-0.121173725,-0.7993471,0.322908,-0.121173725,-0.7993471
1715850727.8974211,0.322908,-0.121173725,-0.7993471,0.322908,-0.121173725,-0.7993471
1715850727.900318,0.2355564,-0.18082848,-0.72264814,0.2355564,-0.18082848,-0.72264814
1715850727.9024246,0.04061317,-0.18402427,-0.64275336,0.04061317,-0.18402427,-0.64275336
1715850727.9043705,0.04061317,-0.18402427,-0.64275336,0.04061317,-0.18402427,-0.64275336
1715850727.9065523,0.04061317,-0.18402427,-0.64275336,0.04061317,-0.18402427,-0.64275336
1715850727.9085302,0.04061317,-0.18402427,-0.64275336,0.04061317,-0.18402427,-0.64275336
1715850727.9104373,0.04061317,-0.18402427,-0.64275336,0.04061317,-0.18402427,-0.64275336
1715850727.9124594,0.04061317,-0.18402427,-0.64275336,0.04061317,-0.18402427,-0.64275336
1715850727.914357,-0.12876374,-0.15845795,-0.6075997,-0.12876374,-0.15845795,-0.6075997
1715850727.916312,-0.12876374,-0.15845795,-0.6075997,-0.12876374,-0.15845795,-0.6075997
1715850727.918247,-0.12876374,-0.15845795,-0.6075997,-0.12876374,-0.15845795,-0.6075997
1715850727.9202068,-0.12876374,-0.15845795,-0.6075997,-0.12876374,-0.15845795,-0.6075997
1715850727.9221294,-0.12876374,-0.15845795,-0.6075997,-0.12876374,-0.15845795,-0.6075997
1715850727.924544,-0.32157642,-0.09241161,-0.5799028,-0.32157642,-0.09241161,-0.5799028
1715850727.926542,-0.32157642,-0.09241161,-0.5799028,-0.32157642,-0.09241161,-0.5799028
1715850727.928557,-0.32157642,-0.09241161,-0.5799028,-0.32157642,-0.09241161,-0.5799028
1715850727.9304903,-0.32157642,-0.09241161,-0.5799028,-0.32157642,-0.09241161,-0.5799028
1715850727.9324105,-0.32157642,-0.09241161,-0.5799028,-0.32157642,-0.09241161,-0.5799028
1715850727.9343686,-0.32157642,-0.09241161,-0.5799028,-0.32157642,-0.09241161,-0.5799028
1715850727.9362917,-0.32157642,-0.09241161,-0.5799028,-0.32157642,-0.09241161,-0.5799028
1715850727.9382107,-0.32157642,-0.09241161,-0.5799028,-0.32157642,-0.09241161,-0.5799028
1715850727.9401643,-0.32157642,-0.09241161,-0.5799028,-0.32157642,-0.09241161,-0.5799028
1715850727.9423962,-0.32157642,-0.09241161,-0.5799028,-0.32157642,-0.09241161,-0.5799028
1715850727.9444592,-0.32157642,-0.09241161,-0.5799028,-0.32157642,-0.09241161,-0.5799028
1715850727.9464273,-0.32157642,-0.09241161,-0.5799028,-0.32157642,-0.09241161,-0.5799028
1715850727.9483922,-0.32157642,-0.09241161,-0.5799028,-0.32157642,-0.09241161,-0.5799028
1715850727.950295,-0.32157642,-0.09241161,-0.5799028,-0.32157642,-0.09241161,-0.5799028
1715850727.9522107,-0.32157642,-0.09241161,-0.5799028,-0.32157642,-0.09241161,-0.5799028
1715850727.9541082,-0.32157642,-0.09241161,-0.5799028,-0.32157642,-0.09241161,-0.5799028
1715850727.9560637,-0.32157642,-0.09241161,-0.5799028,-0.32157642,-0.09241161,-0.5799028
1715850727.9580145,-0.32157642,-0.09241161,-0.5799028,-0.32157642,-0.09241161,-0.5799028
1715850727.960111,-0.32157642,-0.09241161,-0.5799028,-0.32157642,-0.09241161,-0.5799028
1715850727.9630783,0.07576687,-0.162719,-0.6193176,0.07576687,-0.162719,-0.6193176
1715850727.9650667,0.07576687,-0.162719,-0.6193176,0.07576687,-0.162719,-0.6193176
1715850727.9674482,0.13648689,-0.17550217,-0.57564175,0.13648689,-0.17550217,-0.57564175
1715850727.9693923,0.13648689,-0.17550217,-0.57564175,0.13648689,-0.17550217,-0.57564175
1715850727.971291,0.13648689,-0.17550217,-0.57564175,0.13648689,-0.17550217,-0.57564175
1715850727.9735467,-0.00519316,-0.014647374,-0.41904804,-0.00519316,-0.014647374,-0.41904804
1715850727.9754477,-0.00519316,-0.014647374,-0.41904804,-0.00519316,-0.014647374,-0.41904804
1715850727.977338,-0.00519316,-0.014647374,-0.41904804,-0.00519316,-0.014647374,-0.41904804
1715850727.979448,-0.00519316,-0.014647374,-0.41904804,-0.00519316,-0.014647374,-0.41904804
1715850727.9813812,-0.00519316,-0.014647374,-0.41904804,-0.00519316,-0.014647374,-0.41904804
1715850727.9832945,-0.19054902,0.2197106,-0.26351956,-0.19054902,0.2197106,-0.26351956
1715850727.9852326,-0.19054902,0.2197106,-0.26351956,-0.19054902,0.2197106,-0.26351956
1715850727.9871383,-0.19054902,0.2197106,-0.26351956,-0.19054902,0.2197106,-0.26351956
1715850727.9891222,-0.19054902,0.2197106,-0.26351956,-0.19054902,0.2197106,-0.26351956
1715850727.991034,-0.19054902,0.2197106,-0.26351956,-0.19054902,0.2197106,-0.26351956
1715850727.9930918,-0.19054902,0.2197106,-0.26351956,-0.19054902,0.2197106,-0.26351956
1715850727.9951723,-0.19054902,0.2197106,-0.26351956,-0.19054902,0.2197106,-0.26351956
1715850727.9971611,-0.19054902,0.2197106,-0.26351956,-0.19054902,0.2197106,-0.26351956
1715850727.9991417,-0.29174906,0.39015275,-0.090946876,-0.29174906,0.39015275,-0.090946876
1715850728.0010824,-0.29174906,0.39015275,-0.090946876,-0.29174906,0.39015275,-0.090946876
1715850728.0029888,-0.29174906,0.39015275,-0.090946876,-0.29174906,0.39015275,-0.090946876
1715850728.0055995,-0.2928143,0.49241805,0.08482161,-0.2928143,0.49241805,0.08482161
1715850728.0074444,-0.2928143,0.49241805,0.08482161,-0.2928143,0.49241805,0.08482161
1715850728.009407,-0.2928143,0.49241805,0.08482161,-0.2928143,0.49241805,0.08482161
1715850728.0112987,-0.2928143,0.49241805,0.08482161,-0.2928143,0.49241805,0.08482161
1715850728.0134113,-0.2928143,0.49241805,0.08482161,-0.2928143,0.49241805,0.08482161
1715850728.015505,-0.2928143,0.49241805,0.08482161,-0.2928143,0.49241805,0.08482161
1715850728.0181499,-0.28216168,0.5073317,0.22863218,-0.28216168,0.5073317,0.22863218
1715850728.0200903,-0.28216168,0.5073317,0.22863218,-0.28216168,0.5073317,0.22863218
1715850728.0220263,-0.28216168,0.5073317,0.22863218,-0.28216168,0.5073317,0.22863218
1715850728.0239341,-0.28216168,0.5073317,0.22863218,-0.28216168,0.5073317,0.22863218
1715850728.025852,-0.28216168,0.5073317,0.22863218,-0.28216168,0.5073317,0.22863218
1715850728.0278177,-0.28216168,0.5073317,0.22863218,-0.28216168,0.5073317,0.22863218
1715850728.0298057,-0.28216168,0.5073317,0.22863218,-0.28216168,0.5073317,0.22863218
1715850728.0318837,-0.28216168,0.5073317,0.22863218,-0.28216168,0.5073317,0.22863218
1715850728.0339124,-0.28216168,0.5073317,0.22863218,-0.28216168,0.5073317,0.22863218
1715850728.0358348,-0.28216168,0.5073317,0.22863218,-0.28216168,0.5073317,0.22863218
1715850728.0377393,-0.28216168,0.5073317,0.22863218,-0.28216168,0.5073317,0.22863218
1715850728.039651,-0.28216168,0.5073317,0.22863218,-0.28216168,0.5073317,0.22863218
1715850728.0415072,-0.28216168,0.5073317,0.22863218,-0.28216168,0.5073317,0.22863218
1715850728.0433714,-0.28216168,0.5073317,0.22863218,-0.28216168,0.5073317,0.22863218
1715850728.04534,-0.28216168,0.5073317,0.22863218,-0.28216168,0.5073317,0.22863218
1715850728.0477557,-0.22250693,0.38163066,0.4214449,-0.22250693,0.38163066,0.4214449
1715850728.0502548,0.092811085,-0.2532664,0.3798996,0.092811085,-0.2532664,0.3798996
1715850728.0524824,0.20359848,-0.37151065,0.38948697,0.20359848,-0.37151065,0.38948697
1715850728.0544376,0.20359848,-0.37151065,0.38948697,0.20359848,-0.37151065,0.38948697
1715850728.0563571,0.20359848,-0.37151065,0.38948697,0.20359848,-0.37151065,0.38948697
1715850728.0582561,0.20359848,-0.37151065,0.38948697,0.20359848,-0.37151065,0.38948697
1715850728.0601568,0.20359848,-0.37151065,0.38948697,0.20359848,-0.37151065,0.38948697
1715850728.0621278,0.20359848,-0.37151065,0.38948697,0.20359848,-0.37151065,0.38948697
1715850728.0641017,0.20359848,-0.37151065,0.38948697,0.20359848,-0.37151065,0.38948697
1715850728.0659502,0.20359848,-0.37151065,0.38948697,0.20359848,-0.37151065,0.38948697
1715850728.0680683,0.29414588,-0.33848748,0.45979437,0.29414588,-0.33848748,0.45979437
1715850728.0700989,0.29414588,-0.33848748,0.45979437,0.29414588,-0.33848748,0.45979437
1715850728.0720503,0.29414588,-0.33848748,0.45979437,0.29414588,-0.33848748,0.45979437
1715850728.0740125,0.1886848,0.19094849,0.6984134,0.1886848,0.19094849,0.6984134
1715850728.0760064,0.1886848,0.19094849,0.6984134,0.1886848,0.19094849,0.6984134
1715850728.0779562,0.1886848,0.19094849,0.6984134,0.1886848,0.19094849,0.6984134
1715850728.0799108,0.1886848,0.19094849,0.6984134,0.1886848,0.19094849,0.6984134
1715850728.0817678,0.1886848,0.19094849,0.6984134,0.1886848,0.19094849,0.6984134
1715850728.0837076,-0.0595216,0.82584554,0.9402282,-0.0595216,0.82584554,0.9402282
1715850728.0855632,-0.0595216,0.82584554,0.9402282,-0.0595216,0.82584554,0.9402282
1715850728.0877516,-0.0595216,0.82584554,0.9402282,-0.0595216,0.82584554,0.9402282
1715850728.0897377,-0.0595216,0.82584554,0.9402282,-0.0595216,0.82584554,0.9402282
1715850728.0916421,-0.0595216,0.82584554,0.9402282,-0.0595216,0.82584554,0.9402282
1715850728.0936897,-0.36418697,1.474591,1.2459588,-0.36418697,1.474591,1.2459588
1715850728.095674,-0.36418697,1.474591,1.2459588,-0.36418697,1.474591,1.2459588
1715850728.0976374,-0.36418697,1.474591,1.2459588,-0.36418697,1.474591,1.2459588
1715850728.0995893,-0.36418697,1.474591,1.2459588,-0.36418697,1.474591,1.2459588
1715850728.1016426,-0.36418697,1.474591,1.2459588,-0.36418697,1.474591,1.2459588
1715850728.1044455,-0.5772397,1.9017617,1.5474284,-0.5772397,1.9017617,1.5474284
1715850728.1064556,-0.5772397,1.9017617,1.5474284,-0.5772397,1.9017617,1.5474284
1715850728.1083117,-0.5772397,1.9017617,1.5474284,-0.5772397,1.9017617,1.5474284
1715850728.1102505,-0.5772397,1.9017617,1.5474284,-0.5772397,1.9017617,1.5474284
1715850728.1122217,-0.5772397,1.9017617,1.5474284,-0.5772397,1.9017617,1.5474284
1715850728.1141417,-0.5772397,1.9017617,1.5474284,-0.5772397,1.9017617,1.5474284
1715850728.1160493,-0.5772397,1.9017617,1.5474284,-0.5772397,1.9017617,1.5474284
1715850728.117993,-0.5772397,1.9017617,1.5474284,-0.5772397,1.9017617,1.5474284
1715850728.1199353,-0.5772397,1.9017617,1.5474284,-0.5772397,1.9017617,1.5474284
1715850728.1220376,-0.5772397,1.9017617,1.5474284,-0.5772397,1.9017617,1.5474284
1715850728.1240363,-0.5772397,1.9017617,1.5474284,-0.5772397,1.9017617,1.5474284
1715850728.1259499,-0.5772397,1.9017617,1.5474284,-0.5772397,1.9017617,1.5474284
1715850728.1278515,-0.5772397,1.9017617,1.5474284,-0.5772397,1.9017617,1.5474284
1715850728.1297925,-0.5772397,1.9017617,1.5474284,-0.5772397,1.9017617,1.5474284
