timestamp,acc_x,acc_y,acc_z,gyro_x,gyro_y,gyro_z
1715850602.521452,0.0,0.0,0.0,0.0,0.0,0.0
1715850602.5232038,-0.001997369,-0.60640126,-0.34021854,-0.001997369,-0.60640126,-0.34021854
1715850602.5252225,-0.001997369,-0.60640126,-0.34021854,-0.001997369,-0.60640126,-0.34021854
1715850602.5270894,-0.001997369,-0.60640126,-0.34021854,-0.001997369,-0.60640126,-0.34021854
1715850602.529025,-0.001997369,-0.60640126,-0.34021854,-0.001997369,-0.60640126,-0.34021854
1715850602.530885,-0.001997369,-0.60640126,-0.34021854,-0.001997369,-0.60640126,-0.34021854
1715850602.5342162,0.42730382,-1.6290542,-0.58203334,0.42730382,-1.6290542,-0.58203334
1715850602.5377295,0.42730382,-1.6290542,-0.58203334,0.42730382,-1.6290542,-0.58203334
1715850602.5405467,0.42730382,-1.6290542,-0.58203334,0.42730382,-1.6290542,-0.58203334
1715850602.5428622,0.42730382,-1.6290542,-0.58203334,0.42730382,-1.6290542,-0.58203334
1715850602.5451639,0.33995223,-1.6013573,-0.68749446,0.33995223,-1.6013573,-0.68749446
1715850602.547343,0.33995223,-1.6013573,-0.68749446,0.33995223,-1.6013573,-0.68749446
1715850602.5494232,0.33995223,-1.6013573,-0.68749446,0.33995223,-1.6013573,-0.68749446
1715850602.551399,0.33995223,-1.6013573,-0.68749446,0.33995223,-1.6013573,-0.68749446
1715850602.553291,0.33995223,-1.6013573,-0.68749446,0.33995223,-1.6013573,-0.68749446
1715850602.555304,0.18122795,-1.4266542,-0.81852186,0.18122795,-1.4266542,-0.81852186
1715850602.5572646,0.18122795,-1.4266542,-0.81852186,0.18122795,-1.4266542,-0.81852186
1715850602.5591564,0.18122795,-1.4266542,-0.81852186,0.18122795,-1.4266542,-0.81852186
1715850602.5610006,0.18122795,-1.4266542,-0.81852186,0.18122795,-1.4266542,-0.81852186
1715850602.5627692,0.035286855,-1.1305109,-0.9154608,0.035286855,-1.1305109,-0.9154608
1715850602.5646038,0.035286855,-1.1305109,-0.9154608,0.035286855,-1.1305109,-0.9154608
1715850602.5663838,0.035286855,-1.1305109,-0.9154608,0.035286855,-1.1305109,-0.9154608
1715850602.568281,0.035286855,-1.1305109,-0.9154608,0.035286855,-1.1305109,-0.9154608
1715850602.5701802,0.035286855,-1.1305109,-0.9154608,0.035286855,-1.1305109,-0.9154608
1715850602.571987,0.035286855,-1.1305109,-0.9154608,0.035286855,-1.1305109,-0.9154608
1715850602.574265,-0.11278477,-0.7736476,-0.9910945,-0.11278477,-0.7736476,-0.9910945
1715850602.5761251,-0.11278477,-0.7736476,-0.9910945,-0.11278477,-0.7736476,-0.9910945
1715850602.577905,-0.11278477,-0.7736476,-0.9910945,-0.11278477,-0.7736476,-0.9910945
1715850602.5796776,-0.11278477,-0.7736476,-0.9910945,-0.11278477,-0.7736476,-0.9910945
1715850602.5813942,-0.11278477,-0.7736476,-0.9910945,-0.11278477,-0.7736476,-0.9910945
1715850602.5833757,-0.12982899,-0.6159886,-1.009204,-0.12982899,-0.6159886,-1.009204
1715850602.585559,-0.12982899,-0.6159886,-1.009204,-0.12982899,-0.6159886,-1.009204
1715850602.5876272,-0.12982899,-0.6159886,-1.009204,-0.12982899,-0.6159886,-1.009204
1715850602.5897613,-0.12982899,-0.6159886,-1.009204,-0.12982899,-0.6159886,-1.009204
1715850602.5918336,-0.12982899,-0.6159886,-1.009204,-0.12982899,-0.6159886,-1.009204
1715850602.5941713,-0.12024162,-0.43382856,-0.97831136,-0.12024162,-0.43382856,-0.97831136
1715850602.5963838,-0.12024162,-0.43382856,-0.97831136,-0.12024162,-0.43382856,-0.97831136
1715850602.598462,-0.12024162,-0.43382856,-0.97831136,-0.12024162,-0.43382856,-0.97831136
1715850602.6003413,-0.12024162,-0.43382856,-0.97831136,-0.12024162,-0.43382856,-0.97831136
1715850602.6023943,-0.11704583,-0.31132326,-0.89841664,-0.11704583,-0.31132326,-0.89841664
1715850602.6041648,-0.11704583,-0.31132326,-0.89841664,-0.11704583,-0.31132326,-0.89841664
1715850602.606015,-0.11704583,-0.31132326,-0.89841664,-0.11704583,-0.31132326,-0.89841664
1715850602.607807,-0.11704583,-0.31132326,-0.89841664,-0.11704583,-0.31132326,-0.89841664
1715850602.6097107,-0.11704583,-0.31132326,-0.89841664,-0.11704583,-0.31132326,-0.89841664
1715850602.6115735,-0.11704583,-0.31132326,-0.89841664,-0.11704583,-0.31132326,-0.89841664
1715850602.6135075,-0.17243953,-0.21012323,-0.77378076,-0.17243953,-0.21012323,-0.77378076
1715850602.6152918,-0.17243953,-0.21012323,-0.77378076,-0.17243953,-0.21012323,-0.77378076
1715850602.617049,-0.17243953,-0.21012323,-0.77378076,-0.17243953,-0.21012323,-0.77378076
1715850602.6188211,-0.17243953,-0.21012323,-0.77378076,-0.17243953,-0.21012323,-0.77378076
1715850602.6206486,-0.17243953,-0.21012323,-0.77378076,-0.17243953,-0.21012323,-0.77378076
1715850602.6226172,-0.2171806,-0.23888534,-0.7119955,-0.2171806,-0.23888534,-0.7119955
1715850602.6247032,-0.2171806,-0.23888534,-0.7119955,-0.2171806,-0.23888534,-0.7119955
1715850602.626512,-0.2171806,-0.23888534,-0.7119955,-0.2171806,-0.23888534,-0.7119955
1715850602.6285315,-0.2171806,-0.23888534,-0.7119955,-0.2171806,-0.23888534,-0.7119955
1715850602.6302915,-0.2171806,-0.23888534,-0.7119955,-0.2171806,-0.23888534,-0.7119955
1715850602.632055,-0.2171806,-0.23888534,-0.7119955,-0.2171806,-0.23888534,-0.7119955
1715850602.633867,-0.27363956,-0.31132326,-0.63849235,-0.27363956,-0.31132326,-0.63849235
1715850602.635645,-0.27363956,-0.31132326,-0.63849235,-0.27363956,-0.31132326,-0.63849235
1715850602.6374269,-0.27363956,-0.31132326,-0.63849235,-0.27363956,-0.31132326,-0.63849235
1715850602.6393178,-0.27363956,-0.31132326,-0.63849235,-0.27363956,-0.31132326,-0.63849235
1715850602.6411777,-0.27363956,-0.31132326,-0.63849235,-0.27363956,-0.31132326,-0.63849235
1715850602.6429687,-0.27363956,-0.31132326,-0.63849235,-0.27363956,-0.31132326,-0.63849235
1715850602.6452277,-0.36631748,-0.27297378,-0.55540174,-0.36631748,-0.27297378,-0.55540174
1715850602.647234,-0.36631748,-0.27297378,-0.55540174,-0.36631748,-0.27297378,-0.55540174
1715850602.6490421,-0.36631748,-0.27297378,-0.55540174,-0.36631748,-0.27297378,-0.55540174
1715850602.6507566,-0.5367597,-0.13768531,-0.3934817,-0.5367597,-0.13768531,-0.3934817
1715850602.6525803,-0.5367597,-0.13768531,-0.3934817,-0.5367597,-0.13768531,-0.3934817
1715850602.654375,-0.5367597,-0.13768531,-0.3934817,-0.5367597,-0.13768531,-0.3934817
1715850602.6562014,-0.5367597,-0.13768531,-0.3934817,-0.5367597,-0.13768531,-0.3934817
1715850602.6581044,-0.5367597,-0.13768531,-0.3934817,-0.5367597,-0.13768531,-0.3934817
1715850602.6599417,-0.5367597,-0.13768531,-0.3934817,-0.5367597,-0.13768531,-0.3934817
1715850602.6617332,-0.5367597,-0.13768531,-0.3934817,-0.5367597,-0.13768531,-0.3934817
1715850602.6639633,-0.6880271,-0.023702113,-0.2592585,-0.6880271,-0.023702113,-0.2592585
1715850602.665808,-0.6880271,-0.023702113,-0.2592585,-0.6880271,-0.023702113,-0.2592585
1715850602.6676505,-0.6880271,-0.023702113,-0.2592585,-0.6880271,-0.023702113,-0.2592585
1715850602.6694875,-0.6880271,-0.023702113,-0.2592585,-0.6880271,-0.023702113,-0.2592585
1715850602.6712892,-0.6880271,-0.023702113,-0.2592585,-0.6880271,-0.023702113,-0.2592585
1715850602.67329,-0.7593997,0.014647374,-0.17723322,-0.7593997,0.014647374,-0.17723322
1715850602.6751516,-0.7593997,0.014647374,-0.17723322,-0.7593997,0.014647374,-0.17723322
1715850602.6770706,-0.7593997,0.014647374,-0.17723322,-0.7593997,0.014647374,-0.17723322
1715850602.6789255,-0.7593997,0.014647374,-0.17723322,-0.7593997,0.014647374,-0.17723322
1715850602.6809525,-0.7593997,0.014647374,-0.17723322,-0.7593997,0.014647374,-0.17723322
1715850602.6827886,-0.79348814,0.0050600017,-0.1250353,-0.79348814,0.0050600017,-0.1250353
1715850602.6846592,-0.79348814,0.0050600017,-0.1250353,-0.79348814,0.0050600017,-0.1250353
1715850602.6865437,-0.79348814,0.0050600017,-0.1250353,-0.79348814,0.0050600017,-0.1250353
1715850602.6883245,-0.79348814,0.0050600017,-0.1250353,-0.79348814,0.0050600017,-0.1250353
1715850602.690191,-0.79348814,0.0050600017,-0.1250353,-0.79348814,0.0050600017,-0.1250353
1715850602.6920228,-0.79348814,0.0050600017,-0.1250353,-0.79348814,0.0050600017,-0.1250353
1715850602.6938875,-0.79348814,0.0050600017,-0.1250353,-0.79348814,0.0050600017,-0.1250353
1715850602.6956522,-0.7721829,-0.008788424,-0.13249215,-0.7721829,-0.008788424,-0.13249215
1715850602.6978164,-0.7721829,-0.008788424,-0.13249215,-0.7721829,-0.008788424,-0.13249215
1715850602.6996949,-0.7721829,-0.008788424,-0.13249215,-0.7721829,-0.008788424,-0.13249215
1715850602.7015107,-0.7061366,0.08282424,-0.18255953,-0.7061366,0.08282424,-0.18255953
1715850602.7032857,-0.7061366,0.08282424,-0.18255953,-0.7061366,0.08282424,-0.18255953
1715850602.7051153,-0.7061366,0.08282424,-0.18255953,-0.7061366,0.08282424,-0.18255953
1715850602.7069638,-0.7061366,0.08282424,-0.18255953,-0.7061366,0.08282424,-0.18255953
1715850602.7087567,-0.7061366,0.08282424,-0.18255953,-0.7061366,0.08282424,-0.18255953
1715850602.7106535,-0.7061366,0.08282424,-0.18255953,-0.7061366,0.08282424,-0.18255953
1715850602.7124338,-0.7061366,0.08282424,-0.18255953,-0.7061366,0.08282424,-0.18255953
1715850602.7145064,-0.663526,0.2884201,-0.19321217,-0.663526,0.2884201,-0.19321217
1715850602.716436,-0.663526,0.2884201,-0.19321217,-0.663526,0.2884201,-0.19321217
1715850602.7182903,-0.663526,0.2884201,-0.19321217,-0.663526,0.2884201,-0.19321217
1715850602.7200637,-0.663526,0.2884201,-0.19321217,-0.663526,0.2884201,-0.19321217
1715850602.7219133,-0.6486123,0.5313002,-0.15379742,-0.6486123,0.5313002,-0.15379742
1715850602.7242417,-0.6486123,0.5313002,-0.15379742,-0.6486123,0.5313002,-0.15379742
1715850602.726186,-0.6486123,0.5313002,-0.15379742,-0.6486123,0.5313002,-0.15379742
1715850602.7280107,-0.6486123,0.5313002,-0.15379742,-0.6486123,0.5313002,-0.15379742
1715850602.7298253,-0.6486123,0.5313002,-0.15379742,-0.6486123,0.5313002,-0.15379742
1715850602.731806,-0.6486123,0.5313002,-0.15379742,-0.6486123,0.5313002,-0.15379742
1715850602.7336342,-0.60067546,0.7560708,-0.09946898,-0.60067546,0.7560708,-0.09946898
1715850602.7354372,-0.60067546,0.7560708,-0.09946898,-0.60067546,0.7560708,-0.09946898
1715850602.7372391,-0.60067546,0.7560708,-0.09946898,-0.60067546,0.7560708,-0.09946898
1715850602.7391012,-0.60067546,0.7560708,-0.09946898,-0.60067546,0.7560708,-0.09946898
1715850602.741251,-0.60067546,0.7560708,-0.09946898,-0.60067546,0.7560708,-0.09946898
1715850602.7431219,-0.60067546,0.7560708,-0.09946898,-0.60067546,0.7560708,-0.09946898
1715850602.7449977,-0.60067546,0.7560708,-0.09946898,-0.60067546,0.7560708,-0.09946898
1715850602.7468414,-0.5324986,0.8274434,-0.07603318,-0.5324986,0.8274434,-0.07603318
1715850602.7488534,-0.5324986,0.8274434,-0.07603318,-0.5324986,0.8274434,-0.07603318
1715850602.7507074,-0.5324986,0.8274434,-0.07603318,-0.5324986,0.8274434,-0.07603318
1715850602.7526023,-0.5324986,0.8274434,-0.07603318,-0.5324986,0.8274434,-0.07603318
1715850602.7545414,-0.38549224,0.77737606,-0.05366265,-0.38549224,0.77737606,-0.05366265
1715850602.756445,-0.38549224,0.77737606,-0.05366265,-0.38549224,0.77737606,-0.05366265
1715850602.7595327,-0.38549224,0.77737606,-0.05366265,-0.38549224,0.77737606,-0.05366265
1715850602.7631729,-0.21078902,0.69002444,-0.036618434,-0.21078902,0.69002444,-0.036618434
1715850602.767018,-0.21078902,0.69002444,-0.036618434,-0.21078902,0.69002444,-0.036618434
1715850602.7704418,-0.21078902,0.69002444,-0.036618434,-0.21078902,0.69002444,-0.036618434
1715850602.7738404,-0.057391074,0.61971706,0.032623697,-0.057391074,0.61971706,0.032623697
1715850602.7771037,-0.057391074,0.61971706,0.032623697,-0.057391074,0.61971706,0.032623697
1715850602.7805743,-0.057391074,0.61971706,0.032623697,-0.057391074,0.61971706,0.032623697
1715850602.784492,-0.0030626326,0.61758655,0.12530163,-0.0030626326,0.61758655,0.12530163
1715850602.7880194,-0.0030626326,0.61758655,0.12530163,-0.0030626326,0.61758655,0.12530163
1715850602.7912996,-0.0030626326,0.61758655,0.12530163,-0.0030626326,0.61758655,0.12530163
1715850602.794011,0.03422159,0.61758655,0.19241323,0.03422159,0.61758655,0.19241323
1715850602.7968369,0.03422159,0.61758655,0.19241323,0.03422159,0.61758655,0.19241323
1715850602.7991543,0.03422159,0.61758655,0.19241323,0.03422159,0.61758655,0.19241323
1715850602.801603,0.10559425,0.5739107,0.19454375,0.10559425,0.5739107,0.19454375
1715850602.804544,0.10559425,0.5739107,0.19454375,0.10559425,0.5739107,0.19454375
1715850602.8070097,0.10559425,0.5739107,0.19454375,0.10559425,0.5739107,0.19454375
1715850602.8093781,0.10559425,0.5739107,0.19454375,0.10559425,0.5739107,0.19454375
1715850602.8116875,0.10559425,0.5739107,0.19454375,0.10559425,0.5739107,0.19454375
1715850602.8140807,0.20146796,0.48229805,0.14660689,0.20146796,0.48229805,0.14660689
1715850602.816459,0.20146796,0.48229805,0.14660689,0.20146796,0.48229805,0.14660689
1715850602.819483,0.20146796,0.48229805,0.14660689,0.20146796,0.48229805,0.14660689
1715850602.8227508,0.20146796,0.48229805,0.14660689,0.20146796,0.48229805,0.14660689
1715850602.8261776,0.29414588,0.41731697,0.1434111,0.29414588,0.41731697,0.1434111
1715850602.8287752,0.29414588,0.41731697,0.1434111,0.29414588,0.41731697,0.1434111
1715850602.8312483,0.29414588,0.41731697,0.1434111,0.29414588,0.41731697,0.1434111
1715850602.8345249,0.4315649,0.38855487,0.22117534,0.4315649,0.38855487,0.22117534
1715850602.8376305,0.4315649,0.38855487,0.22117534,0.4315649,0.38855487,0.22117534
1715850602.8404021,0.4315649,0.38855487,0.22117534,0.4315649,0.38855487,0.22117534
1715850602.8430839,0.4315649,0.38855487,0.22117534,0.4315649,0.38855487,0.22117534
1715850602.8454776,0.4315649,0.38855487,0.22117534,0.4315649,0.38855487,0.22117534
1715850602.8476882,0.5743102,0.34807485,0.30746168,0.5743102,0.34807485,0.30746168
1715850602.8498337,0.5743102,0.34807485,0.30746168,0.5743102,0.34807485,0.30746168
1715850602.8519468,0.5743102,0.34807485,0.30746168,0.5743102,0.34807485,0.30746168
1715850602.8541546,0.7234471,0.24687482,0.30320063,0.7234471,0.24687482,0.30320063
1715850602.8563802,0.7234471,0.24687482,0.30320063,0.7234471,0.24687482,0.30320063
1715850602.858691,0.7234471,0.24687482,0.30320063,0.7234471,0.24687482,0.30320063
1715850602.8608956,0.7234471,0.24687482,0.30320063,0.7234471,0.24687482,0.30320063
1715850602.86312,0.775645,0.22343902,0.2456764,0.775645,0.22343902,0.2456764
1715850602.865315,0.775645,0.22343902,0.2456764,0.775645,0.22343902,0.2456764
1715850602.867358,0.775645,0.22343902,0.2456764,0.775645,0.22343902,0.2456764
1715850602.8694496,0.775645,0.22343902,0.2456764,0.775645,0.22343902,0.2456764
1715850602.871515,0.775645,0.22343902,0.2456764,0.775645,0.22343902,0.2456764
1715850602.8737454,1.0206556,0.081758976,-0.013182636,1.0206556,0.081758976,-0.013182636
1715850602.875817,1.0206556,0.081758976,-0.013182636,1.0206556,0.081758976,-0.013182636
1715850602.8780937,1.0206556,0.081758976,-0.013182636,1.0206556,0.081758976,-0.013182636
1715850602.8801396,1.0206556,0.081758976,-0.013182636,1.0206556,0.081758976,-0.013182636
1715850602.882241,1.0206556,0.081758976,-0.013182636,1.0206556,0.081758976,-0.013182636
1715850602.8844528,1.187902,-0.02263685,-0.1633848,1.187902,-0.02263685,-0.1633848
1715850602.8865645,1.187902,-0.02263685,-0.1633848,1.187902,-0.02263685,-0.1633848
1715850602.8887117,1.187902,-0.02263685,-0.1633848,1.187902,-0.02263685,-0.1633848
1715850602.8908563,1.187902,-0.02263685,-0.1633848,1.187902,-0.02263685,-0.1633848
1715850602.8930726,1.187902,-0.02263685,-0.1633848,1.187902,-0.02263685,-0.1633848
1715850602.895322,1.187902,-0.02263685,-0.1633848,1.187902,-0.02263685,-0.1633848
1715850602.8975906,1.491502,-0.30493167,-0.455267,1.491502,-0.30493167,-0.455267
1715850602.8997195,1.491502,-0.30493167,-0.455267,1.491502,-0.30493167,-0.455267
1715850602.9026904,1.491502,-0.30493167,-0.455267,1.491502,-0.30493167,-0.455267
1715850602.904956,1.6310517,-0.5701823,-0.70773447,1.6310517,-0.5701823,-0.70773447
1715850602.9071357,1.6310517,-0.5701823,-0.70773447,1.6310517,-0.5701823,-0.70773447
1715850602.9092925,1.6310517,-0.5701823,-0.70773447,1.6310517,-0.5701823,-0.70773447
1715850602.9113472,1.6310517,-0.5701823,-0.70773447,1.6310517,-0.5701823,-0.70773447
1715850602.9136617,1.8068202,-0.8141276,-1.0422271,1.8068202,-0.8141276,-1.0422271
1715850602.9158483,1.8068202,-0.8141276,-1.0422271,1.8068202,-0.8141276,-1.0422271
1715850602.9179723,1.8068202,-0.8141276,-1.0422271,1.8068202,-0.8141276,-1.0422271
1715850602.9200883,1.8068202,-0.8141276,-1.0422271,1.8068202,-0.8141276,-1.0422271
1715850602.9221964,2.336256,-1.2572773,-1.7005601,2.336256,-1.2572773,-1.7005601
1715850602.9244342,2.336256,-1.2572773,-1.7005601,2.336256,-1.2572773,-1.7005601
1715850602.926572,2.336256,-1.2572773,-1.7005601,2.336256,-1.2572773,-1.7005601
1715850602.928651,2.336256,-1.2572773,-1.7005601,2.336256,-1.2572773,-1.7005601
1715850602.9310238,2.336256,-1.2572773,-1.7005601,2.336256,-1.2572773,-1.7005601
1715850602.9337692,2.5876582,-1.4245236,-1.8965685,2.5876582,-1.4245236,-1.8965685
1715850602.9361625,2.5876582,-1.4245236,-1.8965685,2.5876582,-1.4245236,-1.8965685
1715850602.939292,2.5876582,-1.4245236,-1.8965685,2.5876582,-1.4245236,-1.8965685
1715850602.9425793,2.5876582,-1.4245236,-1.8965685,2.5876582,-1.4245236,-1.8965685
1715850602.9459708,2.5876582,-1.4245236,-1.8965685,2.5876582,-1.4245236,-1.8965685
1715850602.9499478,2.8518436,-1.5353111,-2.0734024,2.8518436,-1.5353111,-2.0734024
1715850602.9535823,3.1032457,-1.603488,-2.221474,3.1032457,-1.603488,-2.221474
1715850602.9572592,3.1032457,-1.603488,-2.221474,3.1032457,-1.603488,-2.221474
1715850602.96047,3.1032457,-1.603488,-2.221474,3.1032457,-1.603488,-2.221474
1715850602.9639335,3.8819535,-2.031724,-2.5591624,3.8819535,-2.031724,-2.5591624
1715850602.9674277,3.8819535,-2.031724,-2.5591624,3.8819535,-2.031724,-2.5591624
1715850602.9708135,3.8819535,-2.031724,-2.5591624,3.8819535,-2.031724,-2.5591624
1715850602.9745607,4.728838,-2.5760734,-2.8595667,4.728838,-2.5760734,-2.8595667
1715850602.9778852,4.728838,-2.5760734,-2.8595667,4.728838,-2.5760734,-2.8595667
1715850602.9813423,4.728838,-2.5760734,-2.8595667,4.728838,-2.5760734,-2.8595667
1715850602.9854808,5.279579,-3.0373325,-3.0651627,5.279579,-3.0373325,-3.0651627
1715850602.9892247,5.279579,-3.0373325,-3.0651627,5.279579,-3.0373325,-3.0651627
1715850602.9924047,5.74723,-3.6083138,-3.321891,5.74723,-3.6083138,-3.321891
1715850602.9950807,5.74723,-3.6083138,-3.321891,5.74723,-3.6083138,-3.321891
1715850602.9981768,5.74723,-3.6083138,-3.321891,5.74723,-3.6083138,-3.321891
1715850603.0011063,5.74723,-3.6083138,-3.321891,5.74723,-3.6083138,-3.321891
1715850603.0051062,5.9325857,-4.0855517,-3.579685,5.9325857,-4.0855517,-3.579685
1715850603.0082932,5.9325857,-4.0855517,-3.579685,5.9325857,-4.0855517,-3.579685
1715850603.0110745,5.9325857,-4.0855517,-3.579685,5.9325857,-4.0855517,-3.579685
1715850603.0139523,5.8750615,-4.324171,-3.8172386,5.8750615,-4.324171,-3.8172386
1715850603.0166595,5.8750615,-4.324171,-3.8172386,5.8750615,-4.324171,-3.8172386
1715850603.0192978,5.8750615,-4.324171,-3.8172386,5.8750615,-4.324171,-3.8172386
1715850603.021916,5.8750615,-4.324171,-3.8172386,5.8750615,-4.324171,-3.8172386
1715850603.0254822,5.695032,-4.287952,-4.0292263,5.695032,-4.287952,-4.0292263
1715850603.0282981,5.695032,-4.287952,-4.0292263,5.695032,-4.287952,-4.0292263
1715850603.031046,5.695032,-4.287952,-4.0292263,5.695032,-4.287952,-4.0292263
1715850603.033743,5.655617,-4.191013,-4.2784977,5.655617,-4.191013,-4.2784977
1715850603.0364034,5.655617,-4.191013,-4.2784977,5.655617,-4.191013,-4.2784977
1715850603.03909,5.655617,-4.191013,-4.2784977,5.655617,-4.191013,-4.2784977
1715850603.041787,5.655617,-4.191013,-4.2784977,5.655617,-4.191013,-4.2784977
1715850603.045009,5.707815,-4.040811,-4.558662,5.707815,-4.040811,-4.558662
1715850603.0478733,5.707815,-4.040811,-4.558662,5.707815,-4.040811,-4.558662
1715850603.0505345,5.707815,-4.040811,-4.558662,5.707815,-4.040811,-4.558662
1715850603.0533073,5.707815,-4.040811,-4.558662,5.707815,-4.040811,-4.558662
1715850603.05633,5.904889,-3.8171055,-4.8313694,5.904889,-3.8171055,-4.8313694
1715850603.0590692,5.904889,-3.8171055,-4.8313694,5.904889,-3.8171055,-4.8313694
1715850603.0617142,5.904889,-3.8171055,-4.8313694,5.904889,-3.8171055,-4.8313694
1715850603.0647159,6.0241985,-3.6988614,-4.946418,6.0241985,-3.6988614,-4.946418
1715850603.0674372,6.0241985,-3.6988614,-4.946418,6.0241985,-3.6988614,-4.946418
1715850603.0705724,6.0241985,-3.6988614,-4.946418,6.0241985,-3.6988614,-4.946418
1715850603.0738215,6.1285944,-3.5625076,-5.0082035,6.1285944,-3.5625076,-5.0082035
1715850603.0764687,6.1285944,-3.5625076,-5.0082035,6.1285944,-3.5625076,-5.0082035
1715850603.0791762,6.1285944,-3.5625076,-5.0082035,6.1285944,-3.5625076,-5.0082035
1715850603.0819843,6.195706,-3.4336107,-4.9762454,6.195706,-3.4336107,-4.9762454
1715850603.085053,6.195706,-3.4336107,-4.9762454,6.195706,-3.4336107,-4.9762454
1715850603.08785,6.195706,-3.4336107,-4.9762454,6.195706,-3.4336107,-4.9762454
1715850603.0900784,6.195706,-3.4336107,-4.9762454,6.195706,-3.4336107,-4.9762454
1715850603.0922213,6.2500343,-3.1577075,-4.910199,6.2500343,-3.1577075,-4.910199
1715850603.0942638,6.2500343,-3.1577075,-4.910199,6.2500343,-3.1577075,-4.910199
1715850603.0966263,6.2500343,-3.1577075,-4.910199,6.2500343,-3.1577075,-4.910199
1715850603.1010737,6.2500343,-3.1577075,-4.910199,6.2500343,-3.1577075,-4.910199
1715850603.1039817,6.252165,-2.8881958,-4.856936,6.252165,-2.8881958,-4.856936
1715850603.1067061,6.252165,-2.8881958,-4.856936,6.252165,-2.8881958,-4.856936
1715850603.1090553,6.252165,-2.8881958,-4.856936,6.252165,-2.8881958,-4.856936
1715850603.1112914,6.252165,-2.8881958,-4.856936,6.252165,-2.8881958,-4.856936
1715850603.113389,6.252165,-2.8881958,-4.856936,6.252165,-2.8881958,-4.856936
1715850603.1154249,6.252165,-2.8881958,-4.856936,6.252165,-2.8881958,-4.856936
1715850603.1174514,6.252165,-2.8881958,-4.856936,6.252165,-2.8881958,-4.856936
1715850603.1196096,6.231925,-2.4929829,-4.8111296,6.231925,-2.4929829,-4.8111296
1715850603.1217391,6.231925,-2.4929829,-4.8111296,6.231925,-2.4929829,-4.8111296
1715850603.1237745,6.231925,-2.4929829,-4.8111296,6.231925,-2.4929829,-4.8111296
1715850603.1257598,6.231925,-2.4929829,-4.8111296,6.231925,-2.4929829,-4.8111296
1715850603.127803,6.283057,-2.1499681,-4.768519,6.283057,-2.1499681,-4.768519
1715850603.1297846,6.283057,-2.1499681,-4.768519,6.283057,-2.1499681,-4.768519
1715850603.1317592,6.283057,-2.1499681,-4.768519,6.283057,-2.1499681,-4.768519
1715850603.1338124,6.283057,-2.1499681,-4.768519,6.283057,-2.1499681,-4.768519
1715850603.1358745,6.418346,-1.6951005,-4.682233,6.418346,-1.6951005,-4.682233
1715850603.137951,6.418346,-1.6951005,-4.682233,6.418346,-1.6951005,-4.682233
1715850603.140058,6.418346,-1.6951005,-4.682233,6.418346,-1.6951005,-4.682233
1715850603.1421056,6.5120893,-1.2104057,-4.55014,6.5120893,-1.2104057,-4.55014
1715850603.1440914,6.5120893,-1.2104057,-4.55014,6.5120893,-1.2104057,-4.55014
1715850603.1460395,6.5120893,-1.2104057,-4.55014,6.5120893,-1.2104057,-4.55014
1715850603.1492984,6.5120893,-1.2104057,-4.55014,6.5120893,-1.2104057,-4.55014
1715850603.1527283,6.580266,-0.9345024,-4.360523,6.580266,-0.9345024,-4.360523
1715850603.156493,6.580266,-0.9345024,-4.360523,6.580266,-0.9345024,-4.360523
1715850603.1594625,6.580266,-0.9345024,-4.360523,6.580266,-0.9345024,-4.360523
1715850603.162288,6.580266,-0.9345024,-4.360523,6.580266,-0.9345024,-4.360523
1715850603.165097,6.6132894,-0.83543295,-4.1027293,6.6132894,-0.83543295,-4.1027293
1715850603.167985,6.6132894,-0.83543295,-4.1027293,6.6132894,-0.83543295,-4.1027293
1715850603.1707666,6.6132894,-0.83543295,-4.1027293,6.6132894,-0.83543295,-4.1027293
1715850603.173757,6.580266,-0.93130666,-3.8012598,6.580266,-0.93130666,-3.8012598
1715850603.1769521,6.580266,-0.93130666,-3.8012598,6.580266,-0.93130666,-3.8012598
1715850603.1804032,6.580266,-0.93130666,-3.8012598,6.580266,-0.93130666,-3.8012598
1715850603.1834128,6.443912,-1.1880351,-3.588207,6.443912,-1.1880351,-3.588207
1715850603.1868234,6.443912,-1.1880351,-3.588207,6.443912,-1.1880351,-3.588207
1715850603.189795,6.443912,-1.1880351,-3.588207,6.443912,-1.1880351,-3.588207
1715850603.1935956,6.1008973,-1.7760606,-3.4017859,6.1008973,-1.7760606,-3.4017859
1715850603.1974256,6.1008973,-1.7760606,-3.4017859,6.1008973,-1.7760606,-3.4017859
1715850603.2006779,6.1008973,-1.7760606,-3.4017859,6.1008973,-1.7760606,-3.4017859
1715850603.2035255,5.9198027,-2.0519638,-3.417765,5.9198027,-2.0519638,-3.417765
1715850603.2057645,5.9198027,-2.0519638,-3.417765,5.9198027,-2.0519638,-3.417765
1715850603.2078662,5.9198027,-2.0519638,-3.417765,5.9198027,-2.0519638,-3.417765
1715850603.209996,5.9198027,-2.0519638,-3.417765,5.9198027,-2.0519638,-3.417765
1715850603.2123406,5.9198027,-2.0519638,-3.417765,5.9198027,-2.0519638,-3.417765
1715850603.2144487,5.9198027,-2.0519638,-3.417765,5.9198027,-2.0519638,-3.417765
1715850603.2166605,5.9198027,-2.0519638,-3.417765,5.9198027,-2.0519638,-3.417765
1715850603.2186425,5.5917015,-2.3608904,-3.5988595,5.5917015,-2.3608904,-3.5988595
1715850603.220473,5.5917015,-2.3608904,-3.5988595,5.5917015,-2.3608904,-3.5988595
1715850603.2223125,5.5917015,-2.3608904,-3.5988595,5.5917015,-2.3608904,-3.5988595
1715850603.2243388,5.3733225,-2.9712863,-3.7639756,5.3733225,-2.9712863,-3.7639756
1715850603.2261527,5.3733225,-2.9712863,-3.7639756,5.3733225,-2.9712863,-3.7639756
1715850603.2279444,5.3733225,-2.9712863,-3.7639756,5.3733225,-2.9712863,-3.7639756
1715850603.2300706,5.3733225,-2.9712863,-3.7639756,5.3733225,-2.9712863,-3.7639756
1715850603.231899,5.2731876,-2.9808736,-3.8491967,5.2731876,-2.9808736,-3.8491967
1715850603.2337718,5.2731876,-2.9808736,-3.8491967,5.2731876,-2.9808736,-3.8491967
1715850603.2356057,5.2731876,-2.9808736,-3.8491967,5.2731876,-2.9808736,-3.8491967
1715850603.2374032,5.2731876,-2.9808736,-3.8491967,5.2731876,-2.9808736,-3.8491967
1715850603.2392406,5.2731876,-2.9808736,-3.8491967,5.2731876,-2.9808736,-3.8491967
1715850603.2409835,5.2731876,-2.9808736,-3.8491967,5.2731876,-2.9808736,-3.8491967
1715850603.2427738,5.2731876,-2.9808736,-3.8491967,5.2731876,-2.9808736,-3.8491967
1715850603.244718,4.824712,-2.2927134,-3.9738324,4.824712,-2.2927134,-3.9738324
1715850603.2465405,4.824712,-2.2927134,-3.9738324,4.824712,-2.2927134,-3.9738324
1715850603.2485588,4.824712,-2.2927134,-3.9738324,4.824712,-2.2927134,-3.9738324
1715850603.250476,4.824712,-2.2927134,-3.9738324,4.824712,-2.2927134,-3.9738324
1715850603.2522132,4.824712,-2.2927134,-3.9738324,4.824712,-2.2927134,-3.9738324
1715850603.2540221,4.824712,-2.2927134,-3.9738324,4.824712,-2.2927134,-3.9738324
1715850603.2559817,4.523242,-1.9017617,-3.9898114,4.523242,-1.9017617,-3.9898114
1715850603.2593691,4.523242,-1.9017617,-3.9898114,4.523242,-1.9017617,-3.9898114
1715850603.2628431,4.523242,-1.9017617,-3.9898114,4.523242,-1.9017617,-3.9898114
1715850603.2664146,4.2388167,-1.7717996,-4.0025945,4.2388167,-1.7717996,-4.0025945
1715850603.2704127,4.2388167,-1.7717996,-4.0025945,4.2388167,-1.7717996,-4.0025945
1715850603.2741044,3.985284,-1.69297,-3.9013946,3.985284,-1.69297,-3.9013946
1715850603.277368,3.985284,-1.69297,-3.9013946,3.985284,-1.69297,-3.9013946
1715850603.2808585,3.985284,-1.69297,-3.9013946,3.985284,-1.69297,-3.9013946
1715850603.2855718,3.6880755,-1.5598121,-3.6425354,3.6880755,-1.5598121,-3.6425354
1715850603.2894697,3.6880755,-1.5598121,-3.6425354,3.6880755,-1.5598121,-3.6425354
1715850603.2932198,3.5101764,-1.821867,-3.2270827,3.5101764,-1.821867,-3.2270827
1715850603.2967708,3.5101764,-1.821867,-3.2270827,3.5101764,-1.821867,-3.2270827
1715850603.3002133,3.5101764,-1.821867,-3.2270827,3.5101764,-1.821867,-3.2270827
1715850603.3037012,3.431347,-2.1307933,-3.0321395,3.431347,-2.1307933,-3.0321395
1715850603.3073235,3.431347,-2.1307933,-3.0321395,3.431347,-2.1307933,-3.0321395
1715850603.3109977,3.431347,-2.1307933,-3.0321395,3.431347,-2.1307933,-3.0321395
1715850603.3140352,3.431347,-2.1307933,-3.0321395,3.431347,-2.1307933,-3.0321395
1715850603.3170807,3.1266816,-2.3342588,-2.8734152,3.1266816,-2.3342588,-2.8734152
1715850603.3198085,3.1266816,-2.3342588,-2.8734152,3.1266816,-2.3342588,-2.8734152
1715850603.322545,3.1266816,-2.3342588,-2.8734152,3.1266816,-2.3342588,-2.8734152
1715850603.3252676,2.6217468,-2.1851218,-2.6678193,2.6217468,-2.1851218,-2.6678193
1715850603.3273444,2.6217468,-2.1851218,-2.6678193,2.6217468,-2.1851218,-2.6678193
1715850603.3292487,2.6217468,-2.1851218,-2.6678193,2.6217468,-2.1851218,-2.6678193
1715850603.3311048,2.6217468,-2.1851218,-2.6678193,2.6217468,-2.1851218,-2.6678193
1715850603.3331673,2.3224077,-2.0082881,-2.5154867,2.3224077,-2.0082881,-2.5154867
1715850603.3351135,2.3224077,-2.0082881,-2.5154867,2.3224077,-2.0082881,-2.5154867
1715850603.3371232,2.3224077,-2.0082881,-2.5154867,2.3224077,-2.0082881,-2.5154867
1715850603.3389282,2.3224077,-2.0082881,-2.5154867,2.3224077,-2.0082881,-2.5154867
1715850603.340755,2.3224077,-2.0082881,-2.5154867,2.3224077,-2.0082881,-2.5154867
1715850603.3427086,1.3551483,-1.3563467,-1.736779,1.3551483,-1.3563467,-1.736779
1715850603.3448682,1.3551483,-1.3563467,-1.736779,1.3551483,-1.3563467,-1.736779
1715850603.3467448,1.3551483,-1.3563467,-1.736779,1.3551483,-1.3563467,-1.736779
1715850603.348583,1.3551483,-1.3563467,-1.736779,1.3551483,-1.3563467,-1.736779
1715850603.3504052,1.3551483,-1.3563467,-1.736779,1.3551483,-1.3563467,-1.736779
1715850603.3521156,1.3551483,-1.3563467,-1.736779,1.3551483,-1.3563467,-1.736779
1715850603.3539588,0.68296707,-0.99522245,-0.80467343,0.68296707,-0.99522245,-0.80467343
1715850603.3558235,0.68296707,-0.99522245,-0.80467343,0.68296707,-0.99522245,-0.80467343
1715850603.3576784,0.68296707,-0.99522245,-0.80467343,0.68296707,-0.99522245,-0.80467343
1715850603.3594167,0.68296707,-0.99522245,-0.80467343,0.68296707,-0.99522245,-0.80467343
1715850603.3616705,0.68296707,-0.99522245,-0.80467343,0.68296707,-0.99522245,-0.80467343
1715850603.3661258,0.08002792,-0.76619077,0.40227014,0.08002792,-0.76619077,0.40227014
1715850603.3695793,0.08002792,-0.76619077,0.40227014,0.08002792,-0.76619077,0.40227014
1715850603.3735423,-0.24700798,-0.66605604,1.6315843,-0.24700798,-0.66605604,1.6315843
1715850603.3772461,-0.24700798,-0.66605604,1.6315843,-0.24700798,-0.66605604,1.6315843
1715850603.3811445,-0.24700798,-0.66605604,1.6315843,-0.24700798,-0.66605604,1.6315843
1715850603.3850532,-0.29707536,-0.35073802,2.3634202,-0.29707536,-0.35073802,2.3634202
1715850603.388543,-0.29707536,-0.35073802,2.3634202,-0.29707536,-0.35073802,2.3634202
1715850603.3921258,-0.25020376,0.40453383,2.8662248,-0.25020376,0.40453383,2.8662248
1715850603.3949745,-0.25020376,0.40453383,2.8662248,-0.25020376,0.40453383,2.8662248
1715850603.398138,-0.25020376,0.40453383,2.8662248,-0.25020376,0.40453383,2.8662248
1715850603.4010818,-0.25020376,0.40453383,2.8662248,-0.25020376,0.40453383,2.8662248
1715850603.4041865,-0.010519478,1.2578099,2.9876647,-0.010519478,1.2578099,2.9876647
1715850603.407107,-0.010519478,1.2578099,2.9876647,-0.010519478,1.2578099,2.9876647
1715850603.4096432,-0.010519478,1.2578099,2.9876647,-0.010519478,1.2578099,2.9876647
1715850603.4119987,-0.010519478,1.2578099,2.9876647,-0.010519478,1.2578099,2.9876647
1715850603.4148333,0.07896266,2.1813934,2.961033,0.07896266,2.1813934,2.961033
1715850603.4178908,0.07896266,2.1813934,2.961033,0.07896266,2.1813934,2.961033
1715850603.420454,0.07896266,2.1813934,2.961033,0.07896266,2.1813934,2.961033
1715850603.4229333,-0.2693785,2.5062988,2.7479804,-0.2693785,2.5062988,2.7479804
1715850603.4254022,-0.2693785,2.5062988,2.7479804,-0.2693785,2.5062988,2.7479804
1715850603.4278107,-0.2693785,2.5062988,2.7479804,-0.2693785,2.5062988,2.7479804
1715850603.4302201,-0.2693785,2.5062988,2.7479804,-0.2693785,2.5062988,2.7479804
1715850603.4330676,-0.85633874,2.8152251,2.395378,-0.85633874,2.8152251,2.395378
1715850603.4354434,-0.85633874,2.8152251,2.395378,-0.85633874,2.8152251,2.395378
1715850603.4379218,-0.85633874,2.8152251,2.395378,-0.85633874,2.8152251,2.395378
1715850603.4404068,-0.85633874,2.8152251,2.395378,-0.85633874,2.8152251,2.395378
1715850603.442847,-1.3239894,3.0421264,2.2590244,-1.3239894,3.0421264,2.2590244
1715850603.4453204,-1.3239894,3.0421264,2.2590244,-1.3239894,3.0421264,2.2590244
1715850603.4477046,-1.3239894,3.0421264,2.2590244,-1.3239894,3.0421264,2.2590244
1715850603.4500616,-1.3239894,3.0421264,2.2590244,-1.3239894,3.0421264,2.2590244
1715850603.4524007,-1.3239894,3.0421264,2.2590244,-1.3239894,3.0421264,2.2590244
1715850603.4553397,-1.3239894,3.0421264,2.2590244,-1.3239894,3.0421264,2.2590244
1715850603.457888,-1.524259,3.3180296,2.3431802,-1.524259,3.3180296,2.3431802
1715850603.4603913,-1.524259,3.3180296,2.3431802,-1.524259,3.3180296,2.3431802
1715850603.462792,-1.524259,3.3180296,2.3431802,-1.524259,3.3180296,2.3431802
1715850603.465318,-1.2856399,3.7633097,2.4784687,-1.2856399,3.7633097,2.4784687
1715850603.4677203,-1.2856399,3.7633097,2.4784687,-1.2856399,3.7633097,2.4784687
1715850603.4700954,-1.2856399,3.7633097,2.4784687,-1.2856399,3.7633097,2.4784687
1715850603.4729886,-1.132242,4.1276298,2.9397278,-1.132242,4.1276298,2.9397278
1715850603.4757144,-1.132242,4.1276298,2.9397278,-1.132242,4.1276298,2.9397278
1715850603.4781232,-1.132242,4.1276298,2.9397278,-1.132242,4.1276298,2.9397278
1715850603.4805112,-1.132242,4.1276298,2.9397278,-1.132242,4.1276298,2.9397278
1715850603.482868,-1.132242,4.1276298,2.9397278,-1.132242,4.1276298,2.9397278
1715850603.4852853,-1.132242,4.1276298,2.9397278,-1.132242,4.1276298,2.9397278
1715850603.4877448,-1.1801789,4.2874193,3.29233,-1.1801789,4.2874193,3.29233
1715850603.4901972,-1.1801789,4.2874193,3.29233,-1.1801789,4.2874193,3.29233
1715850603.4931166,-2.0132148,4.500472,4.529101,-2.0132148,4.500472,4.529101
1715850603.4956179,-2.0132148,4.500472,4.529101,-2.0132148,4.500472,4.529101
1715850603.49801,-2.0132148,4.500472,4.529101,-2.0132148,4.500472,4.529101
1715850603.500437,-2.0132148,4.500472,4.529101,-2.0132148,4.500472,4.529101
1715850603.5028846,-2.7546384,4.435491,5.0255136,-2.7546384,4.435491,5.0255136
1715850603.5054643,-2.7546384,4.435491,5.0255136,-2.7546384,4.435491,5.0255136
1715850603.5079243,-2.7546384,4.435491,5.0255136,-2.7546384,4.435491,5.0255136
1715850603.510316,-2.7546384,4.435491,5.0255136,-2.7546384,4.435491,5.0255136
1715850603.5130863,-3.8625124,4.2149816,5.45588,-3.8625124,4.2149816,5.45588
1715850603.5155187,-3.8625124,4.2149816,5.45588,-3.8625124,4.2149816,5.45588
1715850603.5179074,-3.8625124,4.2149816,5.45588,-3.8625124,4.2149816,5.45588
1715850603.5202706,-3.8625124,4.2149816,5.45588,-3.8625124,4.2149816,5.45588
1715850603.5227685,-4.9011445,3.9976678,5.6859775,-4.9011445,3.9976678,5.6859775
1715850603.5252907,-4.9011445,3.9976678,5.6859775,-4.9011445,3.9976678,5.6859775
1715850603.5277116,-4.9011445,3.9976678,5.6859775,-4.9011445,3.9976678,5.6859775
1715850603.5303605,-4.9011445,3.9976678,5.6859775,-4.9011445,3.9976678,5.6859775
1715850603.5329273,-4.9011445,3.9976678,5.6859775,-4.9011445,3.9976678,5.6859775
1715850603.5352895,-4.9011445,3.9976678,5.6859775,-4.9011445,3.9976678,5.6859775
1715850603.5378208,-5.727789,3.6759582,5.765872,-5.727789,3.6759582,5.765872
1715850603.5402772,-5.727789,3.6759582,5.765872,-5.727789,3.6759582,5.765872
1715850603.5429437,-6.2934437,3.295659,5.8319182,-6.2934437,3.295659,5.8319182
1715850603.5454278,-6.2934437,3.295659,5.8319182,-6.2934437,3.295659,5.8319182
1715850603.5477931,-6.2934437,3.295659,5.8319182,-6.2934437,3.295659,5.8319182
1715850603.5504174,-6.2934437,3.295659,5.8319182,-6.2934437,3.295659,5.8319182
1715850603.5529416,-7.090261,2.5531704,5.984251,-7.090261,2.5531704,5.984251
1715850603.555291,-7.090261,2.5531704,5.984251,-7.090261,2.5531704,5.984251
1715850603.5577419,-7.090261,2.5531704,5.984251,-7.090261,2.5531704,5.984251
1715850603.5601382,-7.090261,2.5531704,5.984251,-7.090261,2.5531704,5.984251
1715850603.5627038,-7.5163665,1.9406438,6.186651,-7.5163665,1.9406438,6.186651
1715850603.5653203,-7.5163665,1.9406438,6.186651,-7.5163665,1.9406438,6.186651
1715850603.5679095,-7.5163665,1.9406438,6.186651,-7.5163665,1.9406438,6.186651
1715850603.570558,-7.5163665,1.9406438,6.186651,-7.5163665,1.9406438,6.186651
1715850603.5736535,-7.8199663,1.7020248,6.4827943,-7.8199663,1.7020248,6.4827943
1715850603.5760863,-7.8199663,1.7020248,6.4827943,-7.8199663,1.7020248,6.4827943
1715850603.5784397,-7.8199663,1.7020248,6.4827943,-7.8199663,1.7020248,6.4827943
1715850603.58092,-7.8199663,1.7020248,6.4827943,-7.8199663,1.7020248,6.4827943
1715850603.5833042,-7.8199663,1.7020248,6.4827943,-7.8199663,1.7020248,6.4827943
1715850603.586352,-7.9861474,1.9353175,6.674542,-7.9861474,1.9353175,6.674542
1715850603.5890157,-7.9861474,1.9353175,6.674542,-7.9861474,1.9353175,6.674542
1715850603.5914829,-7.9861474,1.9353175,6.674542,-7.9861474,1.9353175,6.674542
1715850603.5940828,-8.208788,2.6138904,6.716087,-8.208788,2.6138904,6.716087
1715850603.59655,-8.208788,2.6138904,6.716087,-8.208788,2.6138904,6.716087
1715850603.5989177,-8.208788,2.6138904,6.716087,-8.208788,2.6138904,6.716087
1715850603.6013625,-8.208788,2.6138904,6.716087,-8.208788,2.6138904,6.716087
1715850603.6039376,-8.208788,2.6138904,6.716087,-8.208788,2.6138904,6.716087
1715850603.6072743,-8.275899,2.8865979,6.530731,-8.275899,2.8865979,6.530731
1715850603.6097305,-8.275899,2.8865979,6.530731,-8.275899,2.8865979,6.530731
1715850603.6121826,-8.186417,3.013364,6.019405,-8.186417,3.013364,6.019405
1715850603.6146154,-8.186417,3.013364,6.019405,-8.186417,3.013364,6.019405
1715850603.6170998,-8.186417,3.013364,6.019405,-8.186417,3.013364,6.019405
1715850603.6194303,-8.186417,3.013364,6.019405,-8.186417,3.013364,6.019405
1715850603.6218076,-8.186417,3.013364,6.019405,-8.186417,3.013364,6.019405
1715850603.624605,-7.8604465,2.8983157,5.6550846,-7.8604465,2.8983157,5.6550846
1715850603.6271439,-7.8604465,2.8983157,5.6550846,-7.8604465,2.8983157,5.6550846
1715850603.6296055,-7.8604465,2.8983157,5.6550846,-7.8604465,2.8983157,5.6550846
1715850603.6319983,-7.8604465,2.8983157,5.6550846,-7.8604465,2.8983157,5.6550846
1715850603.6343362,-7.8604465,2.8983157,5.6550846,-7.8604465,2.8983157,5.6550846
1715850603.636819,-7.8604465,2.8983157,5.6550846,-7.8604465,2.8983157,5.6550846
1715850603.6394014,-7.4332757,2.6596968,5.5059476,-7.4332757,2.6596968,5.5059476
1715850603.642536,-7.058303,2.3433135,5.5144696,-7.058303,2.3433135,5.5144696
1715850603.645049,-7.058303,2.3433135,5.5144696,-7.058303,2.3433135,5.5144696
1715850603.6474624,-7.058303,2.3433135,5.5144696,-7.058303,2.3433135,5.5144696
1715850603.6498406,-7.058303,2.3433135,5.5144696,-7.058303,2.3433135,5.5144696
1715850603.6522698,-6.832467,2.0695407,5.538971,-6.832467,2.0695407,5.538971
1715850603.654667,-6.832467,2.0695407,5.538971,-6.832467,2.0695407,5.538971
1715850603.6571708,-6.832467,2.0695407,5.538971,-6.832467,2.0695407,5.538971
1715850603.6596239,-6.832467,2.0695407,5.538971,-6.832467,2.0695407,5.538971
1715850603.662319,-6.832467,2.0695407,5.538971,-6.832467,2.0695407,5.538971
1715850603.6648307,-6.793052,1.9097512,5.5048823,-6.793052,1.9097512,5.5048823
1715850603.6672442,-6.793052,1.9097512,5.5048823,-6.793052,1.9097512,5.5048823
1715850603.6696317,-6.793052,1.9097512,5.5048823,-6.793052,1.9097512,5.5048823
1715850603.6723433,-6.8559027,1.9438397,5.365333,-6.8559027,1.9438397,5.365333
1715850603.6749182,-6.8559027,1.9438397,5.365333,-6.8559027,1.9438397,5.365333
1715850603.6772976,-6.8559027,1.9438397,5.365333,-6.8559027,1.9438397,5.365333
1715850603.6800873,-6.8559027,1.9438397,5.365333,-6.8559027,1.9438397,5.365333
1715850603.682574,-6.8559027,1.9438397,5.365333,-6.8559027,1.9438397,5.365333
1715850603.6850483,-6.8559027,1.9438397,5.365333,-6.8559027,1.9438397,5.365333
1715850603.6874733,-6.8665557,2.086585,5.0766463,-6.8665557,2.086585,5.0766463
1715850603.6900053,-6.8665557,2.086585,5.0766463,-6.8665557,2.086585,5.0766463
1715850603.692672,-6.8218145,2.3209429,4.6239095,-6.8218145,2.3209429,4.6239095
1715850603.695119,-6.8218145,2.3209429,4.6239095,-6.8218145,2.3209429,4.6239095
1715850603.6975548,-6.8218145,2.3209429,4.6239095,-6.8218145,2.3209429,4.6239095
1715850603.7001345,-6.8218145,2.3209429,4.6239095,-6.8218145,2.3209429,4.6239095
1715850603.702867,-6.819684,2.503103,4.3884864,-6.819684,2.503103,4.3884864
1715850603.705349,-6.819684,2.503103,4.3884864,-6.819684,2.503103,4.3884864
1715850603.707733,-6.819684,2.503103,4.3884864,-6.819684,2.503103,4.3884864
1715850603.710238,-6.819684,2.503103,4.3884864,-6.819684,2.503103,4.3884864
1715850603.712727,-7.001844,3.372358,3.9879472,-7.001844,3.372358,3.9879472
1715850603.7151132,-7.001844,3.372358,3.9879472,-7.001844,3.372358,3.9879472
1715850603.7180738,-7.001844,3.372358,3.9879472,-7.001844,3.372358,3.9879472
1715850603.720705,-7.001844,3.372358,3.9879472,-7.001844,3.372358,3.9879472
1715850603.7232769,-7.352316,4.3396173,3.8846166,-7.352316,4.3396173,3.8846166
1715850603.725726,-7.352316,4.3396173,3.8846166,-7.352316,4.3396173,3.8846166
1715850603.7280648,-7.352316,4.3396173,3.8846166,-7.352316,4.3396173,3.8846166
1715850603.7304778,-7.352316,4.3396173,3.8846166,-7.352316,4.3396173,3.8846166
1715850603.732898,-7.352316,4.3396173,3.8846166,-7.352316,4.3396173,3.8846166
1715850603.7352378,-7.352316,4.3396173,3.8846166,-7.352316,4.3396173,3.8846166
1715850603.7379217,-7.7294188,5.3345733,3.7354796,-7.7294188,5.3345733,3.7354796
1715850603.7404547,-7.7294188,5.3345733,3.7354796,-7.7294188,5.3345733,3.7354796
1715850603.743021,-7.779486,5.675458,3.571429,-7.779486,5.675458,3.571429
1715850603.7454464,-7.779486,5.675458,3.571429,-7.779486,5.675458,3.571429
1715850603.7478178,-7.779486,5.675458,3.571429,-7.779486,5.675458,3.571429
1715850603.7502198,-7.779486,5.675458,3.571429,-7.779486,5.675458,3.571429
1715850603.7529848,-7.704918,5.741504,3.3860734,-7.704918,5.741504,3.3860734
1715850603.756283,-7.704918,5.741504,3.3860734,-7.704918,5.741504,3.3860734
1715850603.7587664,-7.704918,5.741504,3.3860734,-7.704918,5.741504,3.3860734
1715850603.7611792,-7.704918,5.741504,3.3860734,-7.704918,5.741504,3.3860734
1715850603.7636757,-7.0242147,5.073584,2.6861951,-7.0242147,5.073584,2.6861951
1715850603.7661178,-7.0242147,5.073584,2.6861951,-7.0242147,5.073584,2.6861951
1715850603.7685232,-7.0242147,5.073584,2.6861951,-7.0242147,5.073584,2.6861951
1715850603.77092,-7.0242147,5.073584,2.6861951,-7.0242147,5.073584,2.6861951
1715850603.7743924,-5.7458982,3.9412088,2.0321233,-5.7458982,3.9412088,2.0321233
1715850603.7769966,-5.7458982,3.9412088,2.0321233,-5.7458982,3.9412088,2.0321233
1715850603.779392,-5.7458982,3.9412088,2.0321233,-5.7458982,3.9412088,2.0321233
1715850603.7818613,-5.7458982,3.9412088,2.0321233,-5.7458982,3.9412088,2.0321233
1715850603.7844431,-5.7458982,3.9412088,2.0321233,-5.7458982,3.9412088,2.0321233
1715850603.7869048,-5.7458982,3.9412088,2.0321233,-5.7458982,3.9412088,2.0321233
1715850603.7899997,-4.7083316,3.2977896,1.5602115,-4.7083316,3.2977896,1.5602115
1715850603.7931058,-4.7083316,3.2977896,1.5602115,-4.7083316,3.2977896,1.5602115
1715850603.7956693,-4.7083316,3.2977896,1.5602115,-4.7083316,3.2977896,1.5602115
1715850603.7981658,-3.691005,2.7832673,1.0499504,-3.691005,2.7832673,1.0499504
1715850603.8006666,-3.691005,2.7832673,1.0499504,-3.691005,2.7832673,1.0499504
1715850603.803097,-3.691005,2.7832673,1.0499504,-3.691005,2.7832673,1.0499504
1715850603.805712,-2.6331983,2.3337262,0.19134796,-2.6331983,2.3337262,0.19134796
1715850603.8082027,-2.6331983,2.3337262,0.19134796,-2.6331983,2.3337262,0.19134796
1715850603.8106203,-2.6331983,2.3337262,0.19134796,-2.6331983,2.3337262,0.19134796
1715850603.8133776,-2.0590212,2.1590228,-1.029444,-2.0590212,2.1590228,-1.029444
1715850603.815848,-2.0590212,2.1590228,-1.029444,-2.0590212,2.1590228,-1.029444
1715850603.8182297,-2.0590212,2.1590228,-1.029444,-2.0590212,2.1590228,-1.029444
1715850603.8206244,-2.0590212,2.1590228,-1.029444,-2.0590212,2.1590228,-1.029444
1715850603.8236814,-2.2017665,2.058888,-1.5514232,-2.2017665,2.058888,-1.5514232
1715850603.826179,-2.2017665,2.058888,-1.5514232,-2.2017665,2.058888,-1.5514232
1715850603.828656,-2.2017665,2.058888,-1.5514232,-2.2017665,2.058888,-1.5514232
1715850603.8312829,-2.2017665,2.058888,-1.5514232,-2.2017665,2.058888,-1.5514232
1715850603.8336768,-2.2017665,2.058888,-1.5514232,-2.2017665,2.058888,-1.5514232
1715850603.8360827,-2.2017665,2.058888,-1.5514232,-2.2017665,2.058888,-1.5514232
1715850603.8391886,-2.3509035,1.7180037,-1.9072212,-2.3509035,1.7180037,-1.9072212
1715850603.8416278,-2.3509035,1.7180037,-1.9072212,-2.3509035,1.7180037,-1.9072212
1715850603.846445,-1.5210632,1.0330393,-2.1362529,-1.5210632,1.0330393,-2.1362529
1715850603.8511553,-1.5210632,1.0330393,-2.1362529,-1.5210632,1.0330393,-2.1362529
1715850603.855431,-0.36099118,0.44075277,-2.4110909,-0.36099118,0.44075277,-2.4110909
1715850603.8593256,-0.36099118,0.44075277,-2.4110909,-0.36099118,0.44075277,-2.4110909
1715850603.863112,-0.36099118,0.44075277,-2.4110909,-0.36099118,0.44075277,-2.4110909
1715850603.8681347,1.6992285,-0.7512771,-2.7573016,1.6992285,-0.7512771,-2.7573016
1715850603.873007,2.6260078,-1.6301196,-2.901112,2.6260078,-1.6301196,-2.901112
1715850603.8769546,2.6260078,-1.6301196,-2.901112,2.6260078,-1.6301196,-2.901112
1715850603.8809078,2.6260078,-1.6301196,-2.901112,2.6260078,-1.6301196,-2.901112
1715850603.8850133,2.971153,-2.2309282,-3.0736847,2.971153,-2.2309282,-3.0736847
1715850603.888812,2.971153,-2.2309282,-3.0736847,2.971153,-2.2309282,-3.0736847
1715850603.8941824,3.3695617,-2.2852566,-3.4017859,3.3695617,-2.2852566,-3.4017859
1715850603.8981485,3.3695617,-2.2852566,-3.4017859,3.3695617,-2.2852566,-3.4017859
1715850603.9019525,3.3695617,-2.2852566,-3.4017859,3.3695617,-2.2852566,-3.4017859
1715850603.9067504,3.803124,-2.05729,-3.701125,3.803124,-2.05729,-3.701125
1715850603.9097762,3.803124,-2.05729,-3.701125,3.803124,-2.05729,-3.701125
1715850603.9130704,4.3634524,-1.6876438,-4.0792937,4.3634524,-1.6876438,-4.0792937
1715850603.9156756,4.3634524,-1.6876438,-4.0792937,4.3634524,-1.6876438,-4.0792937
1715850603.9180017,4.3634524,-1.6876438,-4.0792937,4.3634524,-1.6876438,-4.0792937
1715850603.920227,4.3634524,-1.6876438,-4.0792937,4.3634524,-1.6876438,-4.0792937
1715850603.9225104,4.3634524,-1.6876438,-4.0792937,4.3634524,-1.6876438,-4.0792937
1715850603.9252436,4.759731,-1.2018836,-4.3040643,4.759731,-1.2018836,-4.3040643
1715850603.9272945,4.759731,-1.2018836,-4.3040643,4.759731,-1.2018836,-4.3040643
1715850603.9294467,4.759731,-1.2018836,-4.3040643,4.759731,-1.2018836,-4.3040643
1715850603.9318137,5.1016803,-0.19307901,-4.3669147,5.1016803,-0.19307901,-4.3669147
1715850603.934292,5.1016803,-0.19307901,-4.3669147,5.1016803,-0.19307901,-4.3669147
1715850603.9363623,5.1016803,-0.19307901,-4.3669147,5.1016803,-0.19307901,-4.3669147
1715850603.9384038,5.1016803,-0.19307901,-4.3669147,5.1016803,-0.19307901,-4.3669147
1715850603.9405699,5.1016803,-0.19307901,-4.3669147,5.1016803,-0.19307901,-4.3669147
1715850603.9425619,5.2891665,0.4695149,-4.3743715,5.2891665,0.4695149,-4.3743715
1715850603.944724,5.2891665,0.4695149,-4.3743715,5.2891665,0.4695149,-4.3743715
1715850603.946834,5.2891665,0.4695149,-4.3743715,5.2891665,0.4695149,-4.3743715
1715850603.9488811,5.2891665,0.4695149,-4.3743715,5.2891665,0.4695149,-4.3743715
1715850603.9510996,5.2891665,0.4695149,-4.3743715,5.2891665,0.4695149,-4.3743715
1715850603.9532,5.2891665,0.4695149,-4.3743715,5.2891665,0.4695149,-4.3743715
1715850603.9552453,5.2891665,0.4695149,-4.3743715,5.2891665,0.4695149,-4.3743715
1715850603.9575386,5.2891665,0.4695149,-4.3743715,5.2891665,0.4695149,-4.3743715
1715850603.9595754,5.6289854,1.092694,-4.392481,5.6289854,1.092694,-4.392481
1715850603.9616385,5.6289854,1.092694,-4.392481,5.6289854,1.092694,-4.392481
1715850603.9641938,6.1179414,1.2876372,-4.407395,6.1179414,1.2876372,-4.407395
1715850603.9662132,6.1179414,1.2876372,-4.407395,6.1179414,1.2876372,-4.407395
1715850603.9685173,6.1179414,1.2876372,-4.407395,6.1179414,1.2876372,-4.407395
1715850603.9706006,6.1179414,1.2876372,-4.407395,6.1179414,1.2876372,-4.407395
1715850603.9728978,6.810363,0.9861677,-4.4553313,6.810363,0.9861677,-4.4553313
1715850603.9749706,6.810363,0.9861677,-4.4553313,6.810363,0.9861677,-4.4553313
1715850603.9771383,6.810363,0.9861677,-4.4553313,6.810363,0.9861677,-4.4553313
1715850603.9792252,6.810363,0.9861677,-4.4553313,6.810363,0.9861677,-4.4553313
1715850603.9812632,6.810363,0.9861677,-4.4553313,6.810363,0.9861677,-4.4553313
1715850603.983368,7.187466,0.6207823,-4.5032682,7.187466,0.6207823,-4.5032682
1715850603.9856305,7.187466,0.6207823,-4.5032682,7.187466,0.6207823,-4.5032682
1715850603.9877245,7.187466,0.6207823,-4.5032682,7.187466,0.6207823,-4.5032682
1715850603.9897695,7.187466,0.6207823,-4.5032682,7.187466,0.6207823,-4.5032682
1715850603.992012,7.6306157,0.10306425,-4.6140556,7.6306157,0.10306425,-4.6140556
1715850603.994089,7.6306157,0.10306425,-4.6140556,7.6306157,0.10306425,-4.6140556
1715850603.9960628,7.6306157,0.10306425,-4.6140556,7.6306157,0.10306425,-4.6140556
1715850603.9984183,7.6306157,0.10306425,-4.6140556,7.6306157,0.10306425,-4.6140556
1715850604.0004656,7.6306157,0.10306425,-4.6140556,7.6306157,0.10306425,-4.6140556
1715850604.0026655,7.6306157,0.10306425,-4.6140556,7.6306157,0.10306425,-4.6140556
1715850604.0046725,7.6306157,0.10306425,-4.6140556,7.6306157,0.10306425,-4.6140556
1715850604.0068548,7.9981318,-0.3336938,-4.716321,7.9981318,-0.3336938,-4.716321
1715850604.0089324,7.9981318,-0.3336938,-4.716321,7.9981318,-0.3336938,-4.716321
1715850604.0110004,7.9981318,-0.3336938,-4.716321,7.9981318,-0.3336938,-4.716321
1715850604.013143,8.241012,-0.91000134,-4.6619925,8.241012,-0.91000134,-4.6619925
1715850604.0151877,8.241012,-0.91000134,-4.6619925,8.241012,-0.91000134,-4.6619925
1715850604.017295,8.241012,-0.91000134,-4.6619925,8.241012,-0.91000134,-4.6619925
1715850604.019413,8.241012,-0.91000134,-4.6619925,8.241012,-0.91000134,-4.6619925
1715850604.0214226,8.241012,-0.91000134,-4.6619925,8.241012,-0.91000134,-4.6619925
1715850604.023696,8.270839,-1.021854,-4.659862,8.270839,-1.021854,-4.659862
1715850604.0257738,8.270839,-1.021854,-4.659862,8.270839,-1.021854,-4.659862
1715850604.0293844,8.270839,-1.021854,-4.659862,8.270839,-1.021854,-4.659862
1715850604.0332625,8.270839,-1.021854,-4.659862,8.270839,-1.021854,-4.659862
1715850604.0377414,8.35606,-1.3201278,-4.861197,8.35606,-1.3201278,-4.861197
1715850604.0417674,8.35606,-1.3201278,-4.861197,8.35606,-1.3201278,-4.861197
1715850604.045043,8.3539295,-1.2839088,-5.026313,8.3539295,-1.2839088,-5.026313
1715850604.047674,8.3539295,-1.2839088,-5.026313,8.3539295,-1.2839088,-5.026313
1715850604.050153,8.3539295,-1.2839088,-5.026313,8.3539295,-1.2839088,-5.026313
1715850604.052573,8.3539295,-1.2839088,-5.026313,8.3539295,-1.2839088,-5.026313
1715850604.0549853,8.223968,-1.170991,-5.313934,8.223968,-1.170991,-5.313934
1715850604.0575252,8.223968,-1.170991,-5.313934,8.223968,-1.170991,-5.313934
1715850604.0596135,8.223968,-1.170991,-5.313934,8.223968,-1.170991,-5.313934
1715850604.0616577,8.223968,-1.170991,-5.313934,8.223968,-1.170991,-5.313934
1715850604.063782,8.057786,-1.074052,-5.4481573,8.057786,-1.074052,-5.4481573
1715850604.0658767,8.057786,-1.074052,-5.4481573,8.057786,-1.074052,-5.4481573
1715850604.0697145,8.057786,-1.074052,-5.4481573,8.057786,-1.074052,-5.4481573
1715850604.0761409,7.9491296,-1.0282456,-5.488637,7.9491296,-1.0282456,-5.488637
1715850604.0802424,7.9491296,-1.0282456,-5.488637,7.9491296,-1.0282456,-5.488637
1715850604.0834281,7.9491296,-1.0282456,-5.488637,7.9491296,-1.0282456,-5.488637
1715850604.0865269,7.815972,-1.1741867,-5.4779844,7.815972,-1.1741867,-5.4779844
1715850604.0890765,7.815972,-1.1741867,-5.4779844,7.815972,-1.1741867,-5.4779844
1715850604.0916653,7.815972,-1.1741867,-5.4779844,7.815972,-1.1741867,-5.4779844
1715850604.0950212,7.821298,-1.4618078,-5.485441,7.821298,-1.4618078,-5.485441
1715850604.0973845,7.821298,-1.4618078,-5.485441,7.821298,-1.4618078,-5.485441
1715850604.0993817,7.821298,-1.4618078,-5.485441,7.821298,-1.4618078,-5.485441
1715850604.1014156,7.821298,-1.4618078,-5.485441,7.821298,-1.4618078,-5.485441
1715850604.1034195,7.821298,-1.4618078,-5.485441,7.821298,-1.4618078,-5.485441
1715850604.1054158,7.9214325,-1.7068185,-5.549357,7.9214325,-1.7068185,-5.549357
1715850604.107598,7.9214325,-1.7068185,-5.549357,7.9214325,-1.7068185,-5.549357
1715850604.1096447,7.9214325,-1.7068185,-5.549357,7.9214325,-1.7068185,-5.549357
1715850604.1116524,7.9214325,-1.7068185,-5.549357,7.9214325,-1.7068185,-5.549357
1715850604.1141443,8.119572,-1.9965701,-5.677189,8.119572,-1.9965701,-5.677189
1715850604.1162243,8.119572,-1.9965701,-5.677189,8.119572,-1.9965701,-5.677189
1715850604.1182606,8.119572,-1.9965701,-5.677189,8.119572,-1.9965701,-5.677189
1715850604.1202874,8.119572,-1.9965701,-5.677189,8.119572,-1.9965701,-5.677189
1715850604.1226377,8.181357,-2.1393154,-5.726191,8.181357,-2.1393154,-5.726191
1715850604.1248317,8.181357,-2.1393154,-5.726191,8.181357,-2.1393154,-5.726191
1715850604.1269915,8.181357,-2.1393154,-5.726191,8.181357,-2.1393154,-5.726191
1715850604.129037,8.181357,-2.1393154,-5.726191,8.181357,-2.1393154,-5.726191
1715850604.1315963,7.8745613,-2.6570334,-5.7368436,7.8745613,-2.6570334,-5.7368436
1715850604.1337972,7.8745613,-2.6570334,-5.7368436,7.8745613,-2.6570334,-5.7368436
1715850604.1358492,7.8745613,-2.6570334,-5.7368436,7.8745613,-2.6570334,-5.7368436
1715850604.137863,7.8745613,-2.6570334,-5.7368436,7.8745613,-2.6570334,-5.7368436
1715850604.1399891,7.8745613,-2.6570334,-5.7368436,7.8745613,-2.6570334,-5.7368436
1715850604.1419914,7.8745613,-2.6570334,-5.7368436,7.8745613,-2.6570334,-5.7368436
1715850604.1440682,7.531546,-2.8232148,-5.6931677,7.531546,-2.8232148,-5.6931677
1715850604.1460812,7.531546,-2.8232148,-5.6931677,7.531546,-2.8232148,-5.6931677
1715850604.1484005,7.531546,-2.8232148,-5.6931677,7.531546,-2.8232148,-5.6931677
1715850604.1505334,7.531546,-2.8232148,-5.6931677,7.531546,-2.8232148,-5.6931677
1715850604.1526182,7.531546,-2.8232148,-5.6931677,7.531546,-2.8232148,-5.6931677
1715850604.154601,7.531546,-2.8232148,-5.6931677,7.531546,-2.8232148,-5.6931677
1715850604.1567385,7.531546,-2.8232148,-5.6931677,7.531546,-2.8232148,-5.6931677
1715850604.1588728,7.0447206,-2.8881958,-5.7155385,7.0447206,-2.8881958,-5.7155385
1715850604.1609874,7.0447206,-2.8881958,-5.7155385,7.0447206,-2.8881958,-5.7155385
1715850604.163064,7.0447206,-2.8881958,-5.7155385,7.0447206,-2.8881958,-5.7155385
1715850604.1654618,6.623942,-2.8157578,-5.790107,6.623942,-2.8157578,-5.790107
1715850604.167548,6.623942,-2.8157578,-5.790107,6.623942,-2.8157578,-5.790107
1715850604.1696105,6.623942,-2.8157578,-5.790107,6.623942,-2.8157578,-5.790107
1715850604.171583,6.623942,-2.8157578,-5.790107,6.623942,-2.8157578,-5.790107
1715850604.1736639,6.448173,-2.760364,-5.831652,6.448173,-2.760364,-5.831652
1715850604.175767,6.448173,-2.760364,-5.831652,6.448173,-2.760364,-5.831652
1715850604.1778235,6.448173,-2.760364,-5.831652,6.448173,-2.760364,-5.831652
1715850604.1798167,6.448173,-2.760364,-5.831652,6.448173,-2.760364,-5.831652
1715850604.1823032,6.448173,-2.760364,-5.831652,6.448173,-2.760364,-5.831652
1715850604.1853917,6.070005,-2.6410546,-5.8891764,6.070005,-2.6410546,-5.8891764
1715850604.1874886,6.070005,-2.6410546,-5.8891764,6.070005,-2.6410546,-5.8891764
1715850604.1895335,6.070005,-2.6410546,-5.8891764,6.070005,-2.6410546,-5.8891764
1715850604.1915824,6.070005,-2.6410546,-5.8891764,6.070005,-2.6410546,-5.8891764
1715850604.1937246,5.7706656,-2.5505073,-5.7453656,5.7706656,-2.5505073,-5.7453656
1715850604.19591,5.7706656,-2.5505073,-5.7453656,5.7706656,-2.5505073,-5.7453656
1715850604.1981807,5.7706656,-2.5505073,-5.7453656,5.7706656,-2.5505073,-5.7453656
1715850604.2005181,5.7706656,-2.5505073,-5.7453656,5.7706656,-2.5505073,-5.7453656
1715850604.2026348,5.7706656,-2.5505073,-5.7453656,5.7706656,-2.5505073,-5.7453656
1715850604.2046325,5.7706656,-2.5505073,-5.7453656,5.7706656,-2.5505073,-5.7453656
1715850604.20696,5.5608087,-2.5398545,-5.5749235,5.5608087,-2.5398545,-5.5749235
1715850604.2092729,5.5608087,-2.5398545,-5.5749235,5.5608087,-2.5398545,-5.5749235
1715850604.2113113,5.5608087,-2.5398545,-5.5749235,5.5608087,-2.5398545,-5.5749235
1715850604.2155497,5.5608087,-2.5398545,-5.5749235,5.5608087,-2.5398545,-5.5749235
1715850604.220066,5.5608087,-2.5398545,-5.5749235,5.5608087,-2.5398545,-5.5749235
1715850604.2239704,5.5608087,-2.5398545,-5.5749235,5.5608087,-2.5398545,-5.5749235
1715850604.2304971,5.052678,-2.9105663,-5.115795,5.052678,-2.9105663,-5.115795
1715850604.2352586,4.4401517,-3.713775,-4.5309653,4.4401517,-3.713775,-4.5309653
1715850604.239289,4.4401517,-3.713775,-4.5309653,4.4401517,-3.713775,-4.5309653
1715850604.2444344,3.5996585,-4.4956784,-3.9738324,3.5996585,-4.4956784,-3.9738324
1715850604.2482367,3.5996585,-4.4956784,-3.9738324,3.5996585,-4.4956784,-3.9738324
1715850604.2519426,3.5996585,-4.4956784,-3.9738324,3.5996585,-4.4956784,-3.9738324
1715850604.2568488,2.1679444,-5.022984,-3.4049816,2.1679444,-5.022984,-3.4049816
1715850604.2598495,2.1679444,-5.022984,-3.4049816,2.1679444,-5.022984,-3.4049816
1715850604.2625847,0.78097135,-4.5968785,-3.0374658,0.78097135,-4.5968785,-3.0374658
1715850604.2650785,0.78097135,-4.5968785,-3.0374658,0.78097135,-4.5968785,-3.0374658
1715850604.2675943,0.78097135,-4.5968785,-3.0374658,0.78097135,-4.5968785,-3.0374658
1715850604.2703204,0.78097135,-4.5968785,-3.0374658,0.78097135,-4.5968785,-3.0374658
1715850604.2729976,0.78097135,-4.5968785,-3.0374658,0.78097135,-4.5968785,-3.0374658
1715850604.2754579,0.78097135,-4.5968785,-3.0374658,0.78097135,-4.5968785,-3.0374658
1715850604.2786145,-0.0030626326,-4.030158,-2.828674,-0.0030626326,-4.030158,-2.828674
1715850604.2814658,-2.3668823,-0.79069185,-2.7945857,-2.3668823,-0.79069185,-2.7945857
1715850604.2841797,-2.3668823,-0.79069185,-2.7945857,-2.3668823,-0.79069185,-2.7945857
1715850604.2866774,-2.3668823,-0.79069185,-2.7945857,-2.3668823,-0.79069185,-2.7945857
1715850604.2893958,-2.3668823,-0.79069185,-2.7945857,-2.3668823,-0.79069185,-2.7945857
1715850604.2919397,-2.3668823,-0.79069185,-2.7945857,-2.3668823,-0.79069185,-2.7945857
1715850604.2951708,-3.6206975,1.7297217,-2.8510447,-3.6206975,1.7297217,-2.8510447
1715850604.2976649,-3.6206975,1.7297217,-2.8510447,-3.6206975,1.7297217,-2.8510447
1715850604.3001337,-3.6206975,1.7297217,-2.8510447,-3.6206975,1.7297217,-2.8510447
1715850604.3027883,-3.6206975,1.7297217,-2.8510447,-3.6206975,1.7297217,-2.8510447
1715850604.3054247,-4.0649123,3.1827412,-2.7242782,-4.0649123,3.1827412,-2.7242782
1715850604.3085575,-4.0649123,3.1827412,-2.7242782,-4.0649123,3.1827412,-2.7242782
1715850604.3112054,-4.0649123,3.1827412,-2.7242782,-4.0649123,3.1827412,-2.7242782
1715850604.3138072,-3.7613122,3.7952676,-2.2608886,-3.7613122,3.7952676,-2.2608886
1715850604.3166273,-3.7613122,3.7952676,-2.2608886,-3.7613122,3.7952676,-2.2608886
1715850604.3191314,-3.7613122,3.7952676,-2.2608886,-3.7613122,3.7952676,-2.2608886
1715850604.3217814,-3.7613122,3.7952676,-2.2608886,-3.7613122,3.7952676,-2.2608886
1715850604.3246052,-2.4148192,2.9324043,-1.5322484,-2.4148192,2.9324043,-1.5322484
1715850604.3273475,-2.4148192,2.9324043,-1.5322484,-2.4148192,2.9324043,-1.5322484
1715850604.3299162,-2.4148192,2.9324043,-1.5322484,-2.4148192,2.9324043,-1.5322484
1715850604.3326914,-0.017976321,1.1225214,-0.68429863,-0.017976321,1.1225214,-0.68429863
1715850604.3353755,-0.017976321,1.1225214,-0.68429863,-0.017976321,1.1225214,-0.68429863
1715850604.3380103,-0.017976321,1.1225214,-0.68429863,-0.017976321,1.1225214,-0.68429863
1715850604.340491,-0.017976321,1.1225214,-0.68429863,-0.017976321,1.1225214,-0.68429863
1715850604.342958,-0.017976321,1.1225214,-0.68429863,-0.017976321,1.1225214,-0.68429863
1715850604.3466413,1.2209252,0.42157805,-0.32637012,1.2209252,0.42157805,-0.32637012
1715850604.349334,1.2209252,0.42157805,-0.32637012,1.2209252,0.42157805,-0.32637012
1715850604.3523574,2.2318602,0.35979277,0.22543639,2.2318602,0.35979277,0.22543639
1715850604.3548594,2.2318602,0.35979277,0.22543639,2.2318602,0.35979277,0.22543639
1715850604.357593,2.2318602,0.35979277,0.22543639,2.2318602,0.35979277,0.22543639
1715850604.3601236,2.2318602,0.35979277,0.22543639,2.2318602,0.35979277,0.22543639
1715850604.3627486,2.2318602,0.35979277,0.22543639,2.2318602,0.35979277,0.22543639
1715850604.3662443,2.157292,0.7944203,0.7623292,2.157292,0.7944203,0.7623292
1715850604.3688707,2.157292,0.7944203,0.7623292,2.157292,0.7944203,0.7623292
1715850604.3713193,2.157292,0.7944203,0.7623292,2.157292,0.7944203,0.7623292
1715850604.3740454,2.157292,0.7944203,0.7623292,2.157292,0.7944203,0.7623292
1715850604.3776076,1.9325212,1.0330393,1.1309104,1.9325212,1.0330393,1.1309104
1715850604.3801112,1.9325212,1.0330393,1.1309104,1.9325212,1.0330393,1.1309104
1715850604.3826597,1.9325212,1.0330393,1.1309104,1.9325212,1.0330393,1.1309104
1715850604.3859684,1.0579399,1.4389048,2.5189488,1.0579399,1.4389048,2.5189488
1715850604.388494,1.0579399,1.4389048,2.5189488,1.0579399,1.4389048,2.5189488
1715850604.3909953,1.0579399,1.4389048,2.5189488,1.0579399,1.4389048,2.5189488
1715850604.393589,1.0579399,1.4389048,2.5189488,1.0579399,1.4389048,2.5189488
1715850604.396214,0.3868238,1.8373133,3.833484,0.3868238,1.8373133,3.833484
1715850604.398703,0.3868238,1.8373133,3.833484,0.3868238,1.8373133,3.833484
1715850604.401199,0.3868238,1.8373133,3.833484,0.3868238,1.8373133,3.833484
1715850604.4054046,-0.11171951,2.4615576,4.965859,-0.11171951,2.4615576,4.965859
1715850604.4081233,-0.11171951,2.4615576,4.965859,-0.11171951,2.4615576,4.965859
1715850604.4107091,-0.11171951,2.4615576,4.965859,-0.11171951,2.4615576,4.965859
1715850604.414884,-0.54954284,3.2019157,5.958685,-0.54954284,3.2019157,5.958685
1715850604.4177103,-0.54954284,3.2019157,5.958685,-0.54954284,3.2019157,5.958685
1715850604.4202926,-0.54954284,3.2019157,5.958685,-0.54954284,3.2019157,5.958685
1715850604.4229317,-0.54954284,3.2019157,5.958685,-0.54954284,3.2019157,5.958685
1715850604.4255686,-0.54954284,3.2019157,5.958685,-0.54954284,3.2019157,5.958685
1715850604.4291208,-0.87551343,3.6770234,6.2250004,-0.87551343,3.6770234,6.2250004
1715850604.431556,-0.87551343,3.6770234,6.2250004,-0.87551343,3.6770234,6.2250004
1715850604.4341023,-1.5029536,4.152131,6.5594935,-1.5029536,4.152131,6.5594935
1715850604.436642,-1.5029536,4.152131,6.5594935,-1.5029536,4.152131,6.5594935
1715850604.4391165,-1.5029536,4.152131,6.5594935,-1.5029536,4.152131,6.5594935
1715850604.4416475,-1.5029536,4.152131,6.5594935,-1.5029536,4.152131,6.5594935
1715850604.4445174,-2.1176107,4.3278995,6.618083,-2.1176107,4.3278995,6.618083
1715850604.4470487,-2.1176107,4.3278995,6.618083,-2.1176107,4.3278995,6.618083
1715850604.449269,-2.1176107,4.3278995,6.618083,-2.1176107,4.3278995,6.618083
1715850604.4514592,-2.1176107,4.3278995,6.618083,-2.1176107,4.3278995,6.618083
1715850604.4537692,-2.5660868,4.464253,6.603169,-2.5660868,4.464253,6.603169
1715850604.4560635,-2.5660868,4.464253,6.603169,-2.5660868,4.464253,6.603169
1715850604.4598489,-2.5660868,4.464253,6.603169,-2.5660868,4.464253,6.603169
1715850604.464042,-2.8846004,4.475971,6.549906,-2.8846004,4.475971,6.549906
1715850604.466981,-2.8846004,4.475971,6.549906,-2.8846004,4.475971,6.549906
1715850604.4694712,-2.8846004,4.475971,6.549906,-2.8846004,4.475971,6.549906
1715850604.4719436,-2.8846004,4.475971,6.549906,-2.8846004,4.475971,6.549906
1715850604.4741812,-2.8846004,4.475971,6.549906,-2.8846004,4.475971,6.549906
1715850604.4765713,-3.100849,4.299137,6.4870553,-3.100849,4.299137,6.4870553
1715850604.4790273,-3.100849,4.299137,6.4870553,-3.100849,4.299137,6.4870553
1715850604.481269,-3.100849,4.299137,6.4870553,-3.100849,4.299137,6.4870553
1715850604.4832585,-3.3160322,3.9028592,6.3187437,-3.3160322,3.9028592,6.3187437
1715850604.4851687,-3.3160322,3.9028592,6.3187437,-3.3160322,3.9028592,6.3187437
1715850604.4871023,-3.3160322,3.9028592,6.3187437,-3.3160322,3.9028592,6.3187437
1715850604.4891126,-3.3160322,3.9028592,6.3187437,-3.3160322,3.9028592,6.3187437
1715850604.4910696,-3.3160322,3.9028592,6.3187437,-3.3160322,3.9028592,6.3187437
1715850604.4932094,-3.4779522,3.214699,5.913944,-3.4779522,3.214699,5.913944
1715850604.4951708,-3.4779522,3.214699,5.913944,-3.4779522,3.214699,5.913944
1715850604.4973555,-3.4779522,3.214699,5.913944,-3.4779522,3.214699,5.913944
1715850604.4993083,-3.4779522,3.214699,5.913944,-3.4779522,3.214699,5.913944
1715850604.5012183,-3.4779522,3.214699,5.913944,-3.4779522,3.214699,5.913944
1715850604.5067604,-3.5951312,2.8897936,5.6636066,-3.5951312,2.8897936,5.6636066
1715850604.5108104,-3.5951312,2.8897936,5.6636066,-3.5951312,2.8897936,5.6636066
1715850604.5161712,-3.7506597,2.7481136,5.3184614,-3.7506597,2.7481136,5.3184614
1715850604.5193305,-3.7506597,2.7481136,5.3184614,-3.7506597,2.7481136,5.3184614
1715850604.5223572,-3.7506597,2.7481136,5.3184614,-3.7506597,2.7481136,5.3184614
1715850604.5253184,-3.7506597,2.7481136,5.3184614,-3.7506597,2.7481136,5.3184614
1715850604.5294793,-3.9211018,2.769419,4.975446,-3.9211018,2.769419,4.975446
1715850604.532452,-3.9211018,2.769419,4.975446,-3.9211018,2.769419,4.975446
1715850604.53719,-4.1298933,2.7150905,4.58556,-4.1298933,2.7150905,4.58556
1715850604.540493,-4.1298933,2.7150905,4.58556,-4.1298933,2.7150905,4.58556
1715850604.5435221,-4.2310934,2.6373262,4.36292,-4.2310934,2.6373262,4.36292
1715850604.5464885,-4.2310934,2.6373262,4.36292,-4.2310934,2.6373262,4.36292
1715850604.5493715,-4.2310934,2.6373262,4.36292,-4.2310934,2.6373262,4.36292
1715850604.5521882,-4.3674474,2.474341,4.0987344,-4.3674474,2.474341,4.0987344
1715850604.55503,-4.3674474,2.474341,4.0987344,-4.3674474,2.474341,4.0987344
1715850604.558274,-4.3674474,2.474341,4.0987344,-4.3674474,2.474341,4.0987344
1715850604.5611892,-4.3674474,2.474341,4.0987344,-4.3674474,2.474341,4.0987344
1715850604.564212,-4.5069966,2.3060293,3.866507,-4.5069966,2.3060293,3.866507
1715850604.5671027,-4.5069966,2.3060293,3.866507,-4.5069966,2.3060293,3.866507
1715850604.569754,-4.5069966,2.3060293,3.866507,-4.5069966,2.3060293,3.866507
1715850604.5722923,-4.5069966,2.3060293,3.866507,-4.5069966,2.3060293,3.866507
1715850604.5751603,-4.5069966,2.3060293,3.866507,-4.5069966,2.3060293,3.866507
1715850604.5781577,-4.6380243,2.1547618,3.6854124,-4.6380243,2.1547618,3.6854124
1715850604.5805004,-4.6380243,2.1547618,3.6854124,-4.6380243,2.1547618,3.6854124
1715850604.5829108,-4.778639,2.0013638,3.5650375,-4.778639,2.0013638,3.5650375
1715850604.585211,-4.778639,2.0013638,3.5650375,-4.778639,2.0013638,3.5650375
1715850604.587326,-4.778639,2.0013638,3.5650375,-4.778639,2.0013638,3.5650375
1715850604.5895286,-4.778639,2.0013638,3.5650375,-4.778639,2.0013638,3.5650375
1715850604.5917833,-4.778639,2.0013638,3.5650375,-4.778639,2.0013638,3.5650375
1715850604.5951872,-5.0098014,1.8309216,3.4680986,-5.0098014,1.8309216,3.4680986
1715850604.5975935,-5.0098014,1.8309216,3.4680986,-5.0098014,1.8309216,3.4680986
1715850604.599812,-5.0098014,1.8309216,3.4680986,-5.0098014,1.8309216,3.4680986
1715850604.6026442,-5.2452245,1.7180037,3.412705,-5.2452245,1.7180037,3.412705
1715850604.6050746,-5.2452245,1.7180037,3.412705,-5.2452245,1.7180037,3.412705
1715850604.6072905,-5.2452245,1.7180037,3.412705,-5.2452245,1.7180037,3.412705
1715850604.609539,-5.2452245,1.7180037,3.412705,-5.2452245,1.7180037,3.412705
1715850604.6121063,-5.473191,1.5720626,3.3136353,-5.473191,1.5720626,3.3136353
1715850604.6148646,-5.473191,1.5720626,3.3136353,-5.473191,1.5720626,3.3136353
1715850604.617138,-5.473191,1.5720626,3.3136353,-5.473191,1.5720626,3.3136353
1715850604.6192915,-5.473191,1.5720626,3.3136353,-5.473191,1.5720626,3.3136353
1715850604.6214385,-5.473191,1.5720626,3.3136353,-5.473191,1.5720626,3.3136353
1715850604.6236322,-5.473191,1.5720626,3.3136353,-5.473191,1.5720626,3.3136353
1715850604.626087,-5.473191,1.5720626,3.3136353,-5.473191,1.5720626,3.3136353
1715850604.6330311,-5.761877,1.41973,3.04945,-5.761877,1.41973,3.04945
1715850604.6371667,-5.761877,1.41973,3.04945,-5.761877,1.41973,3.04945
1715850604.6411464,-5.761877,1.41973,3.04945,-5.761877,1.41973,3.04945
1715850604.645322,-5.8257933,1.4090773,2.9631636,-5.8257933,1.4090773,2.9631636
1715850604.6484082,-5.8257933,1.4090773,2.9631636,-5.8257933,1.4090773,2.9631636
1715850604.6523774,-6.0132794,1.403751,2.722414,-6.0132794,1.403751,2.722414
1715850604.6549802,-6.0132794,1.403751,2.722414,-6.0132794,1.403751,2.722414
1715850604.6574783,-6.0132794,1.403751,2.722414,-6.0132794,1.403751,2.722414
1715850604.65964,-6.0132794,1.403751,2.722414,-6.0132794,1.403751,2.722414
1715850604.6618242,-6.0750647,1.4463615,2.616953,-6.0750647,1.4463615,2.616953
1715850604.6639042,-6.0750647,1.4463615,2.616953,-6.0750647,1.4463615,2.616953
1715850604.6659865,-6.0750647,1.4463615,2.616953,-6.0750647,1.4463615,2.616953
1715850604.6682537,-6.0750647,1.4463615,2.616953,-6.0750647,1.4463615,2.616953
1715850604.6705291,-6.0750647,1.4463615,2.616953,-6.0750647,1.4463615,2.616953
1715850604.6726995,-6.0750647,1.4463615,2.616953,-6.0750647,1.4463615,2.616953
1715850604.6748054,-6.0750647,1.4463615,2.616953,-6.0750647,1.4463615,2.616953
1715850604.6769788,-6.119806,1.5262563,2.5146878,-6.119806,1.5262563,2.5146878
1715850604.6790571,-6.119806,1.5262563,2.5146878,-6.119806,1.5262563,2.5146878
1715850604.6811419,-6.119806,1.5262563,2.5146878,-6.119806,1.5262563,2.5146878
1715850604.6855562,-6.1315236,1.6274563,2.3889866,-6.1315236,1.6274563,2.3889866
1715850604.6897006,-6.1315236,1.6274563,2.3889866,-6.1315236,1.6274563,2.3889866
1715850604.6962454,-6.1187406,1.6359785,2.3389192,-6.1187406,1.6359785,2.3389192
1715850604.7002153,-6.1187406,1.6359785,2.3389192,-6.1187406,1.6359785,2.3389192
1715850604.7046642,-6.2199407,1.5880415,2.3399844,-6.2199407,1.5880415,2.3399844
1715850604.7078018,-6.2199407,1.5880415,2.3399844,-6.2199407,1.5880415,2.3399844
1715850604.710128,-6.2199407,1.5880415,2.3399844,-6.2199407,1.5880415,2.3399844
1715850604.7141597,-6.3413806,1.6370437,2.3634202,-6.3413806,1.6370437,2.3634202
1715850604.7163272,-6.3413806,1.6370437,2.3634202,-6.3413806,1.6370437,2.3634202
1715850604.718498,-6.3413806,1.6370437,2.3634202,-6.3413806,1.6370437,2.3634202
1715850604.7204406,-6.3413806,1.6370437,2.3634202,-6.3413806,1.6370437,2.3634202
1715850604.722916,-6.5863914,2.147305,2.3325276,-6.5863914,2.147305,2.3325276
1715850604.7249262,-6.5863914,2.147305,2.3325276,-6.5863914,2.147305,2.3325276
1715850604.726977,-6.5863914,2.147305,2.3325276,-6.5863914,2.147305,2.3325276
1715850604.7288272,-6.5863914,2.147305,2.3325276,-6.5863914,2.147305,2.3325276
1715850604.7307377,-6.5863914,2.147305,2.3325276,-6.5863914,2.147305,2.3325276
1715850604.733016,-6.7493763,2.7896588,2.268612,-6.7493763,2.7896588,2.268612
1715850604.7350328,-6.7493763,2.7896588,2.268612,-6.7493763,2.7896588,2.268612
1715850604.7368708,-6.7493763,2.7896588,2.268612,-6.7493763,2.7896588,2.268612
1715850604.7386947,-6.7493763,2.7896588,2.268612,-6.7493763,2.7896588,2.268612
1715850604.7407196,-6.7493763,2.7896588,2.268612,-6.7493763,2.7896588,2.268612
1715850604.742686,-6.811162,3.0389304,2.2835255,-6.811162,3.0389304,2.2835255
1715850604.744698,-6.811162,3.0389304,2.2835255,-6.811162,3.0389304,2.2835255
1715850604.746762,-6.811162,3.0389304,2.2835255,-6.811162,3.0389304,2.2835255
1715850604.7486024,-6.811162,3.0389304,2.2835255,-6.811162,3.0389304,2.2835255
1715850604.7504425,-6.811162,3.0389304,2.2835255,-6.811162,3.0389304,2.2835255
1715850604.7522614,-6.811162,3.0389304,2.2835255,-6.811162,3.0389304,2.2835255
1715850604.7541964,-6.856968,2.7992463,2.386856,-6.856968,2.7992463,2.386856
1715850604.7560356,-6.856968,2.7992463,2.386856,-6.856968,2.7992463,2.386856
1715850604.757895,-6.856968,2.7992463,2.386856,-6.856968,2.7992463,2.386856
1715850604.7596543,-6.856968,2.7992463,2.386856,-6.856968,2.7992463,2.386856
1715850604.7614424,-6.856968,2.7992463,2.386856,-6.856968,2.7992463,2.386856
1715850604.7634335,-6.904905,2.0493007,2.5168183,-6.904905,2.0493007,2.5168183
1715850604.7653363,-6.904905,2.0493007,2.5168183,-6.904905,2.0493007,2.5168183
1715850604.7671845,-6.904905,2.0493007,2.5168183,-6.904905,2.0493007,2.5168183
1715850604.7690773,-6.904905,2.0493007,2.5168183,-6.904905,2.0493007,2.5168183
1715850604.7708254,-6.904905,2.0493007,2.5168183,-6.904905,2.0493007,2.5168183
1715850604.7728696,-6.9038396,0.6889592,2.3612897,-6.9038396,0.6889592,2.3612897
1715850604.7747264,-6.9038396,0.6889592,2.3612897,-6.9038396,0.6889592,2.3612897
1715850604.7766182,-6.9038396,0.6889592,2.3612897,-6.9038396,0.6889592,2.3612897
1715850604.7783868,-6.9038396,0.6889592,2.3612897,-6.9038396,0.6889592,2.3612897
1715850604.7804065,-6.9038396,0.6889592,2.3612897,-6.9038396,0.6889592,2.3612897
1715850604.7821932,-6.937928,0.0061252653,2.0566244,-6.937928,0.0061252653,2.0566244
1715850604.7840538,-6.937928,0.0061252653,2.0566244,-6.937928,0.0061252653,2.0566244
1715850604.7859082,-6.937928,0.0061252653,2.0566244,-6.937928,0.0061252653,2.0566244
1715850604.7876706,-6.937928,0.0061252653,2.0566244,-6.937928,0.0061252653,2.0566244
1715850604.7894924,-6.937928,0.0061252653,2.0566244,-6.937928,0.0061252653,2.0566244
1715850604.7912235,-6.937928,0.0061252653,2.0566244,-6.937928,0.0061252653,2.0566244
1715850604.7931488,-7.086,-0.24847272,1.5005568,-7.086,-0.24847272,1.5005568
1715850604.795022,-7.086,-0.24847272,1.5005568,-7.086,-0.24847272,1.5005568
1715850604.7970264,-7.086,-0.24847272,1.5005568,-7.086,-0.24847272,1.5005568
1715850604.7989502,-7.086,-0.24847272,1.5005568,-7.086,-0.24847272,1.5005568
1715850604.800823,-7.086,-0.24847272,1.5005568,-7.086,-0.24847272,1.5005568
1715850604.8026805,-7.4279494,0.3821633,0.94768506,-7.4279494,0.3821633,0.94768506
1715850604.8044744,-7.4279494,0.3821633,0.94768506,-7.4279494,0.3821633,0.94768506
1715850604.80634,-7.4279494,0.3821633,0.94768506,-7.4279494,0.3821633,0.94768506
1715850604.8081708,-7.4279494,0.3821633,0.94768506,-7.4279494,0.3821633,0.94768506
1715850604.8100007,-7.4279494,0.3821633,0.94768506,-7.4279494,0.3821633,0.94768506
1715850604.8118346,-7.4279494,0.3821633,0.94768506,-7.4279494,0.3821633,0.94768506
1715850604.8139455,-8.011714,1.4506226,0.38096488,-8.011714,1.4506226,0.38096488
1715850604.815926,-8.011714,1.4506226,0.38096488,-8.011714,1.4506226,0.38096488
1715850604.8199544,-8.011714,1.4506226,0.38096488,-8.011714,1.4506226,0.38096488
1715850604.8246462,-8.129958,1.860749,0.08588687,-8.129958,1.860749,0.08588687
1715850604.8284893,-8.129958,1.860749,0.08588687,-8.129958,1.860749,0.08588687
1715850604.8322608,-8.129958,1.860749,0.08588687,-8.129958,1.860749,0.08588687
1715850604.8378453,-7.425819,2.2815282,-0.27630273,-7.425819,2.2815282,-0.27630273
1715850604.841911,-7.425819,2.2815282,-0.27630273,-7.425819,2.2815282,-0.27630273
1715850604.8464465,-5.827924,2.3763366,-0.4137217,-5.827924,2.3763366,-0.4137217
1715850604.8503294,-5.827924,2.3763366,-0.4137217,-5.827924,2.3763366,-0.4137217
1715850604.8541348,-3.7996619,1.7808543,-0.33702275,-3.7996619,1.7808543,-0.33702275
1715850604.8580213,-3.7996619,1.7808543,-0.33702275,-3.7996619,1.7808543,-0.33702275
1715850604.8612642,-3.7996619,1.7808543,-0.33702275,-3.7996619,1.7808543,-0.33702275
1715850604.8639958,-3.7996619,1.7808543,-0.33702275,-3.7996619,1.7808543,-0.33702275
1715850604.866336,-1.3964273,0.52810436,-0.25712797,-1.3964273,0.52810436,-0.25712797
1715850604.8685203,-1.3964273,0.52810436,-0.25712797,-1.3964273,0.52810436,-0.25712797
1715850604.870971,-1.3964273,0.52810436,-0.25712797,-1.3964273,0.52810436,-0.25712797
1715850604.8736799,-1.3964273,0.52810436,-0.25712797,-1.3964273,0.52810436,-0.25712797
1715850604.8766732,0.6531397,-0.43702435,-0.35406697,0.6531397,-0.43702435,-0.35406697
1715850604.8787575,0.6531397,-0.43702435,-0.35406697,0.6531397,-0.43702435,-0.35406697
1715850604.8807747,0.6531397,-0.43702435,-0.35406697,0.6531397,-0.43702435,-0.35406697
1715850604.883042,3.3940628,-1.2530162,-0.70240813,3.3940628,-1.2530162,-0.70240813
1715850604.8858438,3.3940628,-1.2530162,-0.70240813,3.3940628,-1.2530162,-0.70240813
1715850604.8878753,3.3940628,-1.2530162,-0.70240813,3.3940628,-1.2530162,-0.70240813
1715850604.8900588,3.3940628,-1.2530162,-0.70240813,3.3940628,-1.2530162,-0.70240813
1715850604.8922231,3.3940628,-1.2530162,-0.70240813,3.3940628,-1.2530162,-0.70240813
1715850604.8946981,5.6321816,-1.3691299,-1.227583,5.6321816,-1.3691299,-1.227583
1715850604.8967628,5.6321816,-1.3691299,-1.227583,5.6321816,-1.3691299,-1.227583
1715850604.8988056,5.6321816,-1.3691299,-1.227583,5.6321816,-1.3691299,-1.227583
1715850604.9008005,5.6321816,-1.3691299,-1.227583,5.6321816,-1.3691299,-1.227583
1715850604.902889,7.238599,-0.9803088,-1.995638,7.238599,-0.9803088,-1.995638
1715850604.9048543,7.238599,-0.9803088,-1.995638,7.238599,-0.9803088,-1.995638
1715850604.9067016,7.238599,-0.9803088,-1.995638,7.238599,-0.9803088,-1.995638
1715850604.9084966,7.238599,-0.9803088,-1.995638,7.238599,-0.9803088,-1.995638
1715850604.9102845,7.238599,-0.9803088,-1.995638,7.238599,-0.9803088,-1.995638
1715850604.912271,7.238599,-0.9803088,-1.995638,7.238599,-0.9803088,-1.995638
1715850604.9141703,7.592266,-0.56592125,-2.6209478,7.592266,-0.56592125,-2.6209478
1715850604.9160464,7.592266,-0.56592125,-2.6209478,7.592266,-0.56592125,-2.6209478
1715850604.917851,7.592266,-0.56592125,-2.6209478,7.592266,-0.56592125,-2.6209478
1715850604.9196508,7.592266,-0.56592125,-2.6209478,7.592266,-0.56592125,-2.6209478
1715850604.9213643,7.592266,-0.56592125,-2.6209478,7.592266,-0.56592125,-2.6209478
1715850604.9231763,7.4122367,-0.21012323,-3.0278785,7.4122367,-0.21012323,-3.0278785
1715850604.9250007,7.4122367,-0.21012323,-3.0278785,7.4122367,-0.21012323,-3.0278785
1715850604.9267468,7.4122367,-0.21012323,-3.0278785,7.4122367,-0.21012323,-3.0278785
1715850604.928591,7.4122367,-0.21012323,-3.0278785,7.4122367,-0.21012323,-3.0278785
1715850604.9306204,7.4122367,-0.21012323,-3.0278785,7.4122367,-0.21012323,-3.0278785
1715850604.9324987,7.4122367,-0.21012323,-3.0278785,7.4122367,-0.21012323,-3.0278785
1715850604.9344559,7.4122367,-0.21012323,-3.0278785,7.4122367,-0.21012323,-3.0278785
1715850604.9362416,6.8785396,0.2969422,-3.466767,6.8785396,0.2969422,-3.466767
1715850604.9382522,6.8785396,0.2969422,-3.466767,6.8785396,0.2969422,-3.466767
1715850604.9401417,6.8785396,0.2969422,-3.466767,6.8785396,0.2969422,-3.466767
1715850604.941974,6.8785396,0.2969422,-3.466767,6.8785396,0.2969422,-3.466767
1715850604.9437551,6.8785396,0.2969422,-3.466767,6.8785396,0.2969422,-3.466767
1715850604.9455416,6.8785396,0.2969422,-3.466767,6.8785396,0.2969422,-3.466767
1715850604.9472613,6.358691,0.7230476,-3.831087,6.358691,0.7230476,-3.831087
1715850604.949116,6.358691,0.7230476,-3.831087,6.358691,0.7230476,-3.831087
1715850604.9509776,6.358691,0.7230476,-3.831087,6.358691,0.7230476,-3.831087
1715850604.9528,6.1509647,0.94142663,-4.118708,6.1509647,0.94142663,-4.118708
1715850604.9545722,6.1509647,0.94142663,-4.118708,6.1509647,0.94142663,-4.118708
1715850604.9563658,6.1509647,0.94142663,-4.118708,6.1509647,0.94142663,-4.118708
1715850604.9581625,6.1509647,0.94142663,-4.118708,6.1509647,0.94142663,-4.118708
1715850604.9599252,6.1509647,0.94142663,-4.118708,6.1509647,0.94142663,-4.118708
1715850604.9617748,6.1509647,0.94142663,-4.118708,6.1509647,0.94142663,-4.118708
1715850604.9636009,6.1509647,0.94142663,-4.118708,6.1509647,0.94142663,-4.118708
1715850604.9661043,6.2713394,0.86579293,-4.3008685,6.2713394,0.86579293,-4.3008685
1715850604.9679594,6.2713394,0.86579293,-4.3008685,6.2713394,0.86579293,-4.3008685
1715850604.9698393,6.2713394,0.86579293,-4.3008685,6.2713394,0.86579293,-4.3008685
1715850604.971617,6.2713394,0.86579293,-4.3008685,6.2713394,0.86579293,-4.3008685
1715850604.973938,6.73686,0.55473596,-4.4627886,6.73686,0.55473596,-4.4627886
1715850604.9756846,6.73686,0.55473596,-4.4627886,6.73686,0.55473596,-4.4627886
1715850604.9774046,6.73686,0.55473596,-4.4627886,6.73686,0.55473596,-4.4627886
1715850604.9791875,6.73686,0.55473596,-4.4627886,6.73686,0.55473596,-4.4627886
1715850604.9810555,6.73686,0.55473596,-4.4627886,6.73686,0.55473596,-4.4627886
1715850604.983153,7.056439,0.3502054,-4.5575967,7.056439,0.3502054,-4.5575967
1715850604.9851444,7.056439,0.3502054,-4.5575967,7.056439,0.3502054,-4.5575967
1715850604.9869812,7.056439,0.3502054,-4.5575967,7.056439,0.3502054,-4.5575967
1715850604.9887533,7.056439,0.3502054,-4.5575967,7.056439,0.3502054,-4.5575967
1715850604.9905775,7.056439,0.3502054,-4.5575967,7.056439,0.3502054,-4.5575967
1715850604.9925666,7.056439,0.3502054,-4.5575967,7.056439,0.3502054,-4.5575967
1715850604.9942763,7.056439,0.3502054,-4.5575967,7.056439,0.3502054,-4.5575967
1715850604.9965343,7.405845,0.05938844,-4.687559,7.405845,0.05938844,-4.687559
1715850604.9986064,7.405845,0.05938844,-4.687559,7.405845,0.05938844,-4.687559
1715850605.0007098,7.405845,0.05938844,-4.687559,7.405845,0.05938844,-4.687559
1715850605.002634,7.592266,-0.1408811,-4.7866287,7.592266,-0.1408811,-4.7866287
1715850605.0044184,7.592266,-0.1408811,-4.7866287,7.592266,-0.1408811,-4.7866287
1715850605.0062945,7.592266,-0.1408811,-4.7866287,7.592266,-0.1408811,-4.7866287
1715850605.008235,7.592266,-0.1408811,-4.7866287,7.592266,-0.1408811,-4.7866287
1715850605.010003,7.592266,-0.1408811,-4.7866287,7.592266,-0.1408811,-4.7866287
1715850605.0121005,7.8404727,-0.47750437,-4.970919,7.8404727,-0.47750437,-4.970919
1715850605.0140543,7.8404727,-0.47750437,-4.970919,7.8404727,-0.47750437,-4.970919
1715850605.015858,7.8404727,-0.47750437,-4.970919,7.8404727,-0.47750437,-4.970919
1715850605.0176845,7.8404727,-0.47750437,-4.970919,7.8404727,-0.47750437,-4.970919
1715850605.0197077,7.8404727,-0.47750437,-4.970919,7.8404727,-0.47750437,-4.970919
1715850605.0215588,7.91078,-0.55739915,-5.01353,7.91078,-0.55739915,-5.01353
1715850605.0233629,7.91078,-0.55739915,-5.01353,7.91078,-0.55739915,-5.01353
1715850605.0252855,7.91078,-0.55739915,-5.01353,7.91078,-0.55739915,-5.01353
1715850605.0271122,7.91078,-0.55739915,-5.01353,7.91078,-0.55739915,-5.01353
1715850605.0288737,7.91078,-0.55739915,-5.01353,7.91078,-0.55739915,-5.01353
1715850605.0306668,7.91078,-0.55739915,-5.01353,7.91078,-0.55739915,-5.01353
1715850605.0324423,7.9853487,-0.625576,-5.057205,7.9853487,-0.625576,-5.057205
1715850605.0342808,7.9853487,-0.625576,-5.057205,7.9853487,-0.625576,-5.057205
1715850605.0363016,7.9853487,-0.625576,-5.057205,7.9853487,-0.625576,-5.057205
1715850605.0382392,7.9853487,-0.625576,-5.057205,7.9853487,-0.625576,-5.057205
1715850605.0400963,7.9853487,-0.625576,-5.057205,7.9853487,-0.625576,-5.057205
1715850605.0419092,7.9853487,-0.625576,-5.057205,7.9853487,-0.625576,-5.057205
1715850605.0436847,7.9853487,-0.625576,-5.057205,7.9853487,-0.625576,-5.057205
1715850605.0458927,7.9438033,-0.5787044,-5.0614667,7.9438033,-0.5787044,-5.0614667
1715850605.047716,7.9438033,-0.5787044,-5.0614667,7.9438033,-0.5787044,-5.0614667
1715850605.049532,7.9438033,-0.5787044,-5.0614667,7.9438033,-0.5787044,-5.0614667
1715850605.0513,7.9438033,-0.5787044,-5.0614667,7.9438033,-0.5787044,-5.0614667
1715850605.0530522,7.6987925,-0.41039276,-5.0550747,7.6987925,-0.41039276,-5.0550747
1715850605.05511,7.6987925,-0.41039276,-5.0550747,7.6987925,-0.41039276,-5.0550747
1715850605.0569792,7.6987925,-0.41039276,-5.0550747,7.6987925,-0.41039276,-5.0550747
1715850605.0587976,7.6987925,-0.41039276,-5.0550747,7.6987925,-0.41039276,-5.0550747
1715850605.0605974,7.6987925,-0.41039276,-5.0550747,7.6987925,-0.41039276,-5.0550747
1715850605.062447,7.5368724,-0.36778224,-5.0327044,7.5368724,-0.36778224,-5.0327044
1715850605.0642948,7.5368724,-0.36778224,-5.0327044,7.5368724,-0.36778224,-5.0327044
1715850605.0660245,7.5368724,-0.36778224,-5.0327044,7.5368724,-0.36778224,-5.0327044
1715850605.067835,7.5368724,-0.36778224,-5.0327044,7.5368724,-0.36778224,-5.0327044
1715850605.069642,7.5368724,-0.36778224,-5.0327044,7.5368724,-0.36778224,-5.0327044
1715850605.0718048,7.436738,-0.3858917,-5.0369654,7.436738,-0.3858917,-5.0369654
1715850605.073837,7.436738,-0.3858917,-5.0369654,7.436738,-0.3858917,-5.0369654
1715850605.075728,7.436738,-0.3858917,-5.0369654,7.436738,-0.3858917,-5.0369654
1715850605.0775216,7.436738,-0.3858917,-5.0369654,7.436738,-0.3858917,-5.0369654
1715850605.0792675,7.436738,-0.3858917,-5.0369654,7.436738,-0.3858917,-5.0369654
1715850605.0810804,7.436738,-0.3858917,-5.0369654,7.436738,-0.3858917,-5.0369654
1715850605.0829566,7.436738,-0.3858917,-5.0369654,7.436738,-0.3858917,-5.0369654
1715850605.0853653,7.4729567,-0.59255284,-5.1786456,7.4729567,-0.59255284,-5.1786456
1715850605.0872383,7.4729567,-0.59255284,-5.1786456,7.4729567,-0.59255284,-5.1786456
1715850605.0890744,7.4729567,-0.59255284,-5.1786456,7.4729567,-0.59255284,-5.1786456
1715850605.0911055,7.4729567,-0.59255284,-5.1786456,7.4729567,-0.59255284,-5.1786456
1715850605.0945046,7.4729567,-0.59255284,-5.1786456,7.4729567,-0.59255284,-5.1786456
1715850605.0982533,7.6252894,-0.85247713,-5.370393,7.6252894,-0.85247713,-5.370393
1715850605.1002622,7.6252894,-0.85247713,-5.370393,7.6252894,-0.85247713,-5.370393
1715850605.102143,7.6252894,-0.85247713,-5.370393,7.6252894,-0.85247713,-5.370393
1715850605.1044421,7.7222285,-1.0282456,-5.4737234,7.7222285,-1.0282456,-5.4737234
1715850605.1063724,7.7222285,-1.0282456,-5.4737234,7.7222285,-1.0282456,-5.4737234
1715850605.1082954,7.7222285,-1.0282456,-5.4737234,7.7222285,-1.0282456,-5.4737234
1715850605.110112,7.7222285,-1.0282456,-5.4737234,7.7222285,-1.0282456,-5.4737234
1715850605.1118305,7.7222285,-1.0282456,-5.4737234,7.7222285,-1.0282456,-5.4737234
1715850605.1136413,7.7659044,-1.2817783,-5.511008,7.7659044,-1.2817783,-5.511008
1715850605.1153758,7.7659044,-1.2817783,-5.511008,7.7659044,-1.2817783,-5.511008
1715850605.117172,7.7659044,-1.2817783,-5.511008,7.7659044,-1.2817783,-5.511008
1715850605.119018,7.7659044,-1.2817783,-5.511008,7.7659044,-1.2817783,-5.511008
1715850605.1208246,7.7659044,-1.2817783,-5.511008,7.7659044,-1.2817783,-5.511008
1715850605.1226947,7.6817484,-1.4351763,-5.451353,7.6817484,-1.4351763,-5.451353
1715850605.1248953,7.6817484,-1.4351763,-5.451353,7.6817484,-1.4351763,-5.451353
1715850605.126828,7.6817484,-1.4351763,-5.451353,7.6817484,-1.4351763,-5.451353
1715850605.1286378,7.6817484,-1.4351763,-5.451353,7.6817484,-1.4351763,-5.451353
1715850605.1304429,7.6817484,-1.4351763,-5.451353,7.6817484,-1.4351763,-5.451353
1715850605.1325405,7.3376684,-1.6727301,-5.2297783,7.3376684,-1.6727301,-5.2297783
1715850605.1343505,7.3376684,-1.6727301,-5.2297783,7.3376684,-1.6727301,-5.2297783
1715850605.136139,7.3376684,-1.6727301,-5.2297783,7.3376684,-1.6727301,-5.2297783
1715850605.1379108,7.3376684,-1.6727301,-5.2297783,7.3376684,-1.6727301,-5.2297783
1715850605.1397192,7.3376684,-1.6727301,-5.2297783,7.3376684,-1.6727301,-5.2297783
1715850605.1414695,7.3376684,-1.6727301,-5.2297783,7.3376684,-1.6727301,-5.2297783
1715850605.1434271,7.3376684,-1.6727301,-5.2297783,7.3376684,-1.6727301,-5.2297783
1715850605.1452796,7.1278114,-1.7611469,-5.1424265,7.1278114,-1.7611469,-5.1424265
1715850605.1471844,7.1278114,-1.7611469,-5.1424265,7.1278114,-1.7611469,-5.1424265
1715850605.149009,7.1278114,-1.7611469,-5.1424265,7.1278114,-1.7611469,-5.1424265
1715850605.1507967,7.1278114,-1.7611469,-5.1424265,7.1278114,-1.7611469,-5.1424265
1715850605.1526563,6.9009104,-1.8516943,-5.164797,6.9009104,-1.8516943,-5.164797
1715850605.1544447,6.9009104,-1.8516943,-5.164797,6.9009104,-1.8516943,-5.164797
1715850605.1563213,6.9009104,-1.8516943,-5.164797,6.9009104,-1.8516943,-5.164797
1715850605.158135,6.9009104,-1.8516943,-5.164797,6.9009104,-1.8516943,-5.164797
1715850605.1601808,6.9009104,-1.8516943,-5.164797,6.9009104,-1.8516943,-5.164797
1715850605.162382,6.6473775,-1.9102838,-5.3171296,6.6473775,-1.9102838,-5.3171296
1715850605.1642146,6.6473775,-1.9102838,-5.3171296,6.6473775,-1.9102838,-5.3171296
1715850605.1660056,6.6473775,-1.9102838,-5.3171296,6.6473775,-1.9102838,-5.3171296
1715850605.1677513,6.6473775,-1.9102838,-5.3171296,6.6473775,-1.9102838,-5.3171296
1715850605.1695316,6.6473775,-1.9102838,-5.3171296,6.6473775,-1.9102838,-5.3171296
1715850605.1712852,6.6473775,-1.9102838,-5.3171296,6.6473775,-1.9102838,-5.3171296
1715850605.1731765,6.3118196,-1.999766,-5.551488,6.3118196,-1.999766,-5.551488
1715850605.1750467,6.3118196,-1.999766,-5.551488,6.3118196,-1.999766,-5.551488
1715850605.1768115,6.3118196,-1.999766,-5.551488,6.3118196,-1.999766,-5.551488
1715850605.178721,6.3118196,-1.999766,-5.551488,6.3118196,-1.999766,-5.551488
1715850605.1804798,6.3118196,-1.999766,-5.551488,6.3118196,-1.999766,-5.551488
1715850605.1823761,6.1296597,-2.1329238,-5.682515,6.1296597,-2.1329238,-5.682515
1715850605.184417,6.1296597,-2.1329238,-5.682515,6.1296597,-2.1329238,-5.682515
1715850605.1867256,6.1296597,-2.1329238,-5.682515,6.1296597,-2.1329238,-5.682515
1715850605.1889644,6.1296597,-2.1329238,-5.682515,6.1296597,-2.1329238,-5.682515
1715850605.1911988,6.1296597,-2.1329238,-5.682515,6.1296597,-2.1329238,-5.682515
1715850605.1933584,6.1296597,-2.1329238,-5.682515,6.1296597,-2.1329238,-5.682515
1715850605.195881,6.1296597,-2.1329238,-5.682515,6.1296597,-2.1329238,-5.682515
1715850605.1985543,5.991175,-2.432263,-5.7815847,5.991175,-2.432263,-5.7815847
1715850605.2009218,5.991175,-2.432263,-5.7815847,5.991175,-2.432263,-5.7815847
1715850605.2031827,5.861213,-2.9084358,-5.6665363,5.861213,-2.9084358,-5.6665363
1715850605.2050543,5.861213,-2.9084358,-5.6665363,5.861213,-2.9084358,-5.6665363
1715850605.2069185,5.861213,-2.9084358,-5.6665363,5.861213,-2.9084358,-5.6665363
1715850605.2088056,5.861213,-2.9084358,-5.6665363,5.861213,-2.9084358,-5.6665363
1715850605.2106001,5.861213,-2.9084358,-5.6665363,5.861213,-2.9084358,-5.6665363
1715850605.2124012,5.861213,-2.9084358,-5.6665363,5.861213,-2.9084358,-5.6665363
1715850605.2150395,5.803689,-3.4740906,-5.274519,5.803689,-3.4740906,-5.274519
1715850605.2169776,5.803689,-3.4740906,-5.274519,5.803689,-3.4740906,-5.274519
1715850605.218835,5.803689,-3.4740906,-5.274519,5.803689,-3.4740906,-5.274519
1715850605.2211711,5.803689,-3.4740906,-5.274519,5.803689,-3.4740906,-5.274519
1715850605.223149,5.803689,-3.4740906,-5.274519,5.803689,-3.4740906,-5.274519
1715850605.2251215,5.7578826,-3.8362803,-4.6982117,5.7578826,-3.8362803,-4.6982117
1715850605.2269206,5.7578826,-3.8362803,-4.6982117,5.7578826,-3.8362803,-4.6982117
1715850605.228732,5.7578826,-3.8362803,-4.6982117,5.7578826,-3.8362803,-4.6982117
1715850605.2305317,5.7578826,-3.8362803,-4.6982117,5.7578826,-3.8362803,-4.6982117
1715850605.2326999,5.48411,-3.798996,-3.9759629,5.48411,-3.798996,-3.9759629
1715850605.234863,5.48411,-3.798996,-3.9759629,5.48411,-3.798996,-3.9759629
1715850605.2367473,5.48411,-3.798996,-3.9759629,5.48411,-3.798996,-3.9759629
1715850605.2385566,5.48411,-3.798996,-3.9759629,5.48411,-3.798996,-3.9759629
1715850605.2403898,5.48411,-3.798996,-3.9759629,5.48411,-3.798996,-3.9759629
1715850605.242566,4.8140593,-3.2631686,-3.4060469,4.8140593,-3.2631686,-3.4060469
1715850605.2445,4.8140593,-3.2631686,-3.4060469,4.8140593,-3.2631686,-3.4060469
1715850605.2463908,4.8140593,-3.2631686,-3.4060469,4.8140593,-3.2631686,-3.4060469
1715850605.2504773,4.8140593,-3.2631686,-3.4060469,4.8140593,-3.2631686,-3.4060469
1715850605.2558713,3.5059154,-2.3470418,-3.2419963,3.5059154,-2.3470418,-3.2419963
1715850605.2597659,3.5059154,-2.3470418,-3.2419963,3.5059154,-2.3470418,-3.2419963
1715850605.2635202,3.5059154,-2.3470418,-3.2419963,3.5059154,-2.3470418,-3.2419963
1715850605.2684534,1.8227991,-1.0612688,-3.321891,1.8227991,-1.0612688,-3.321891
1715850605.2750096,0.47950175,0.06897581,-3.434809,0.47950175,0.06897581,-3.434809
1715850605.2790334,0.47950175,0.06897581,-3.434809,0.47950175,0.06897581,-3.434809
1715850605.2828193,0.47950175,0.06897581,-3.434809,0.47950175,0.06897581,-3.434809
1715850605.286745,0.47950175,0.06897581,-3.434809,0.47950175,0.06897581,-3.434809
1715850605.2950375,-1.9354507,2.5670187,-2.8222826,-1.9354507,2.5670187,-2.8222826
1715850605.2993023,-1.9354507,2.5670187,-2.8222826,-1.9354507,2.5670187,-2.8222826
1715850605.3055081,-1.8512949,2.6511745,-2.477137,-1.8512949,2.6511745,-2.477137
1715850605.309874,-1.8512949,2.6511745,-2.477137,-1.8512949,2.6511745,-2.477137
1715850605.3149378,-1.2685957,2.640522,-1.8305222,-1.2685957,2.640522,-1.8305222
1715850605.3187382,-1.2685957,2.640522,-1.8305222,-1.2685957,2.640522,-1.8305222
1715850605.3252656,-0.36525223,2.5947156,-1.4097431,-0.36525223,2.5947156,-1.4097431
1715850605.3286812,-0.36525223,2.5947156,-1.4097431,-0.36525223,2.5947156,-1.4097431
1715850605.331712,-0.36525223,2.5947156,-1.4097431,-0.36525223,2.5947156,-1.4097431
1715850605.335385,0.30692905,2.2399828,-0.39561224,0.30692905,2.2399828,-0.39561224
1715850605.337753,0.30692905,2.2399828,-0.39561224,0.30692905,2.2399828,-0.39561224
1715850605.3400264,0.30692905,2.2399828,-0.39561224,0.30692905,2.2399828,-0.39561224
1715850605.3422546,0.30692905,2.2399828,-0.39561224,0.30692905,2.2399828,-0.39561224
1715850605.3453212,0.3324954,1.8074859,0.55992913,0.3324954,1.8074859,0.55992913
1715850605.3478003,0.3324954,1.8074859,0.55992913,0.3324954,1.8074859,0.55992913
1715850605.3500237,0.3324954,1.8074859,0.55992913,0.3324954,1.8074859,0.55992913
1715850605.3521473,-0.03289001,1.2812457,1.9575549,-0.03289001,1.2812457,1.9575549
1715850605.3542898,-0.03289001,1.2812457,1.9575549,-0.03289001,1.2812457,1.9575549
1715850605.356397,-0.03289001,1.2812457,1.9575549,-0.03289001,1.2812457,1.9575549
1715850605.3584752,-0.03289001,1.2812457,1.9575549,-0.03289001,1.2812457,1.9575549
1715850605.360651,-0.03289001,1.2812457,1.9575549,-0.03289001,1.2812457,1.9575549
1715850605.3627207,-0.03289001,1.2812457,1.9575549,-0.03289001,1.2812457,1.9575549
1715850605.365693,-0.7988145,1.1747193,3.3977911,-0.7988145,1.1747193,3.3977911
1715850605.3678296,-0.7988145,1.1747193,3.3977911,-0.7988145,1.1747193,3.3977911
1715850605.3699267,-0.7988145,1.1747193,3.3977911,-0.7988145,1.1747193,3.3977911
1715850605.3719406,-0.7988145,1.1747193,3.3977911,-0.7988145,1.1747193,3.3977911
1715850605.3748395,-2.1261327,1.7318522,4.945619,-2.1261327,1.7318522,4.945619
1715850605.3768675,-2.1261327,1.7318522,4.945619,-2.1261327,1.7318522,4.945619
1715850605.3788483,-2.1261327,1.7318522,4.945619,-2.1261327,1.7318522,4.945619
1715850605.3809583,-2.1261327,1.7318522,4.945619,-2.1261327,1.7318522,4.945619
1715850605.3834732,-3.0049753,2.2570271,5.586908,-3.0049753,2.2570271,5.586908
1715850605.3857388,-3.0049753,2.2570271,5.586908,-3.0049753,2.2570271,5.586908
1715850605.3878634,-3.0049753,2.2570271,5.586908,-3.0049753,2.2570271,5.586908
1715850605.389964,-3.0049753,2.2570271,5.586908,-3.0049753,2.2570271,5.586908
1715850605.3920193,-3.0049753,2.2570271,5.586908,-3.0049753,2.2570271,5.586908
1715850605.394107,-3.0049753,2.2570271,5.586908,-3.0049753,2.2570271,5.586908
1715850605.3964846,-4.168243,2.980341,6.2047606,-4.168243,2.980341,6.2047606
1715850605.3986068,-4.168243,2.980341,6.2047606,-4.168243,2.980341,6.2047606
1715850605.400678,-4.168243,2.980341,6.2047606,-4.168243,2.980341,6.2047606
1715850605.4028685,-4.168243,2.980341,6.2047606,-4.168243,2.980341,6.2047606
1715850605.4051406,-5.2569423,3.4969938,6.6021037,-5.2569423,3.4969938,6.6021037
1715850605.4072697,-5.2569423,3.4969938,6.6021037,-5.2569423,3.4969938,6.6021037
1715850605.4093342,-5.2569423,3.4969938,6.6021037,-5.2569423,3.4969938,6.6021037
1715850605.411286,-5.2569423,3.4969938,6.6021037,-5.2569423,3.4969938,6.6021037
1715850605.413283,-5.2569423,3.4969938,6.6021037,-5.2569423,3.4969938,6.6021037
1715850605.4154692,-6.1272626,3.5811496,6.882268,-6.1272626,3.5811496,6.882268
1715850605.4176052,-6.1272626,3.5811496,6.882268,-6.1272626,3.5811496,6.882268
1715850605.4197059,-6.1272626,3.5811496,6.882268,-6.1272626,3.5811496,6.882268
1715850605.421936,-6.1272626,3.5811496,6.882268,-6.1272626,3.5811496,6.882268
1715850605.4241536,-6.715288,3.388337,7.124083,-6.715288,3.388337,7.124083
1715850605.4262295,-6.715288,3.388337,7.124083,-6.715288,3.388337,7.124083
1715850605.4282777,-6.715288,3.388337,7.124083,-6.715288,3.388337,7.124083
1715850605.4303138,-6.715288,3.388337,7.124083,-6.715288,3.388337,7.124083
1715850605.4323852,-6.715288,3.388337,7.124083,-6.715288,3.388337,7.124083
1715850605.434544,-6.715288,3.388337,7.124083,-6.715288,3.388337,7.124083
1715850605.4368205,-6.715288,3.388337,7.124083,-6.715288,3.388337,7.124083
1715850605.4397686,-7.127545,3.202981,7.3126345,-7.127545,3.202981,7.3126345
1715850605.4419065,-7.487604,3.0740843,7.4500537,-7.487604,3.0740843,7.4500537
1715850605.4439692,-7.487604,3.0740843,7.4500537,-7.487604,3.0740843,7.4500537
1715850605.446034,-7.487604,3.0740843,7.4500537,-7.487604,3.0740843,7.4500537
1715850605.4480674,-7.487604,3.0740843,7.4500537,-7.487604,3.0740843,7.4500537
1715850605.450173,-7.487604,3.0740843,7.4500537,-7.487604,3.0740843,7.4500537
1715850605.4524803,-7.8487287,3.2924633,7.289199,-7.8487287,3.2924633,7.289199
1715850605.4545045,-7.8487287,3.2924633,7.289199,-7.8487287,3.2924633,7.289199
1715850605.4568033,-7.8487287,3.2924633,7.289199,-7.8487287,3.2924633,7.289199
1715850605.4588737,-7.8487287,3.2924633,7.289199,-7.8487287,3.2924633,7.289199
1715850605.4609494,-7.8487287,3.2924633,7.289199,-7.8487287,3.2924633,7.289199
1715850605.4630299,-7.8487287,3.2924633,7.289199,-7.8487287,3.2924633,7.289199
1715850605.4651775,-7.8487287,3.2924633,7.289199,-7.8487287,3.2924633,7.289199
1715850605.4672801,-7.8487287,3.2924633,7.289199,-7.8487287,3.2924633,7.289199
1715850605.4701033,-8.012779,3.6003244,6.930205,-8.012779,3.6003244,6.930205
1715850605.4723744,-8.012779,3.6003244,6.930205,-8.012779,3.6003244,6.930205
1715850605.4747732,-8.191743,3.9199035,6.4742723,-8.191743,3.9199035,6.4742723
1715850605.4768753,-8.191743,3.9199035,6.4742723,-8.191743,3.9199035,6.4742723
1715850605.478923,-8.191743,3.9199035,6.4742723,-8.191743,3.9199035,6.4742723
1715850605.480976,-8.191743,3.9199035,6.4742723,-8.191743,3.9199035,6.4742723
1715850605.483721,-8.429297,4.250135,5.6838465,-8.429297,4.250135,5.6838465
1715850605.4858685,-8.429297,4.250135,5.6838465,-8.429297,4.250135,5.6838465
1715850605.4878776,-8.429297,4.250135,5.6838465,-8.429297,4.250135,5.6838465
1715850605.4899642,-8.429297,4.250135,5.6838465,-8.429297,4.250135,5.6838465
1715850605.492569,-8.455929,4.3012676,5.1171265,-8.455929,4.3012676,5.1171265
1715850605.4947922,-8.455929,4.3012676,5.1171265,-8.455929,4.3012676,5.1171265
1715850605.49695,-8.455929,4.3012676,5.1171265,-8.455929,4.3012676,5.1171265
1715850605.4989386,-8.455929,4.3012676,5.1171265,-8.455929,4.3012676,5.1171265
1715850605.5009644,-8.455929,4.3012676,5.1171265,-8.455929,4.3012676,5.1171265
1715850605.5032475,-8.306792,4.1382823,4.7496104,-8.306792,4.1382823,4.7496104
1715850605.5053456,-8.306792,4.1382823,4.7496104,-8.306792,4.1382823,4.7496104
1715850605.5074008,-8.306792,4.1382823,4.7496104,-8.306792,4.1382823,4.7496104
1715850605.5100126,-8.306792,4.1382823,4.7496104,-8.306792,4.1382823,4.7496104
1715850605.512093,-8.306792,4.1382823,4.7496104,-8.306792,4.1382823,4.7496104
1715850605.514045,-8.306792,4.1382823,4.7496104,-8.306792,4.1382823,4.7496104
1715850605.5160694,-8.306792,4.1382823,4.7496104,-8.306792,4.1382823,4.7496104
1715850605.5180902,-7.723027,3.6610444,4.34268,-7.723027,3.6610444,4.34268
1715850605.5200717,-7.723027,3.6610444,4.34268,-7.723027,3.6610444,4.34268
1715850605.523095,-6.904905,2.9611664,4.0497327,-6.904905,2.9611664,4.0497327
1715850605.5252807,-6.904905,2.9611664,4.0497327,-6.904905,2.9611664,4.0497327
1715850605.5274413,-6.904905,2.9611664,4.0497327,-6.904905,2.9611664,4.0497327
1715850605.5295222,-6.904905,2.9611664,4.0497327,-6.904905,2.9611664,4.0497327
1715850605.5315807,-6.904905,2.9611664,4.0497327,-6.904905,2.9611664,4.0497327
1715850605.5339346,-6.07613,2.1568923,3.8888776,-6.07613,2.1568923,3.8888776
1715850605.536053,-6.07613,2.1568923,3.8888776,-6.07613,2.1568923,3.8888776
1715850605.5381024,-6.07613,2.1568923,3.8888776,-6.07613,2.1568923,3.8888776
1715850605.5402265,-6.07613,2.1568923,3.8888776,-6.07613,2.1568923,3.8888776
1715850605.5423398,-5.320858,1.246092,3.8121786,-5.320858,1.246092,3.8121786
1715850605.544714,-5.320858,1.246092,3.8121786,-5.320858,1.246092,3.8121786
1715850605.5468416,-5.320858,1.246092,3.8121786,-5.320858,1.246092,3.8121786
1715850605.548918,-5.320858,1.246092,3.8121786,-5.320858,1.246092,3.8121786
1715850605.5509365,-5.320858,1.246092,3.8121786,-5.320858,1.246092,3.8121786
1715850605.5529897,-5.1365676,0.8721845,3.7844818,-5.1365676,0.8721845,3.7844818
1715850605.5550756,-5.1365676,0.8721845,3.7844818,-5.1365676,0.8721845,3.7844818
1715850605.5572112,-5.1365676,0.8721845,3.7844818,-5.1365676,0.8721845,3.7844818
1715850605.5592897,-5.1365676,0.8721845,3.7844818,-5.1365676,0.8721845,3.7844818
1715850605.5613523,-5.1365676,0.8721845,3.7844818,-5.1365676,0.8721845,3.7844818
1715850605.5635583,-5.1365676,0.8721845,3.7844818,-5.1365676,0.8721845,3.7844818
1715850605.565651,-5.1365676,0.8721845,3.7844818,-5.1365676,0.8721845,3.7844818
1715850605.5677004,-5.1365676,0.8721845,3.7844818,-5.1365676,0.8721845,3.7844818
1715850605.570637,-5.244159,0.6655234,3.7535892,-5.244159,0.6655234,3.7535892
1715850605.572977,-5.736311,0.82424766,3.619366,-5.736311,0.82424766,3.619366
1715850605.5751152,-5.736311,0.82424766,3.619366,-5.736311,0.82424766,3.619366
1715850605.5772543,-5.736311,0.82424766,3.619366,-5.736311,0.82424766,3.619366
1715850605.5794601,-5.736311,0.82424766,3.619366,-5.736311,0.82424766,3.619366
1715850605.5815609,-5.736311,0.82424766,3.619366,-5.736311,0.82424766,3.619366
1715850605.5836232,-5.736311,0.82424766,3.619366,-5.736311,0.82424766,3.619366
1715850605.5858576,-5.9887786,0.966993,3.5171006,-5.9887786,0.966993,3.5171006
1715850605.5878487,-5.9887786,0.966993,3.5171006,-5.9887786,0.966993,3.5171006
1715850605.5899565,-5.9887786,0.966993,3.5171006,-5.9887786,0.966993,3.5171006
1715850605.5921493,-6.731267,1.3728584,3.1101701,-6.731267,1.3728584,3.1101701
1715850605.5942392,-6.731267,1.3728584,3.1101701,-6.731267,1.3728584,3.1101701
1715850605.5962772,-6.731267,1.3728584,3.1101701,-6.731267,1.3728584,3.1101701
1715850605.5986242,-6.731267,1.3728584,3.1101701,-6.731267,1.3728584,3.1101701
1715850605.60079,-6.731267,1.3728584,3.1101701,-6.731267,1.3728584,3.1101701
1715850605.6069462,-6.9794736,1.4591447,2.8608983,-6.9794736,1.4591447,2.8608983
1715850605.610819,-6.9794736,1.4591447,2.8608983,-6.9794736,1.4591447,2.8608983
1715850605.617008,-7.160568,1.3387699,2.6350625,-7.160568,1.3387699,2.6350625
1715850605.621058,-7.160568,1.3387699,2.6350625,-7.160568,1.3387699,2.6350625
1715850605.6272566,-7.120088,1.221591,2.6318667,-7.120088,1.221591,2.6318667
1715850605.6302786,-7.120088,1.221591,2.6318667,-7.120088,1.221591,2.6318667
1715850605.6332226,-7.120088,1.221591,2.6318667,-7.120088,1.221591,2.6318667
1715850605.6376934,-7.0529766,1.0713888,2.670216,-7.0529766,1.0713888,2.670216
1715850605.6405234,-7.0529766,1.0713888,2.670216,-7.0529766,1.0713888,2.670216
1715850605.6429079,-7.0529766,1.0713888,2.670216,-7.0529766,1.0713888,2.670216
1715850605.6460934,-7.0519114,0.9073382,2.576473,-7.0519114,0.9073382,2.576473
1715850605.6482887,-7.0519114,0.9073382,2.576473,-7.0519114,0.9073382,2.576473
1715850605.6503954,-7.0519114,0.9073382,2.576473,-7.0519114,0.9073382,2.576473
1715850605.6524162,-7.0519114,0.9073382,2.576473,-7.0519114,0.9073382,2.576473
1715850605.6548364,-6.8292713,0.5334307,2.2228055,-6.8292713,0.5334307,2.2228055
1715850605.6570473,-6.8292713,0.5334307,2.2228055,-6.8292713,0.5334307,2.2228055
1715850605.659133,-6.8292713,0.5334307,2.2228055,-6.8292713,0.5334307,2.2228055
1715850605.6615846,-6.4106226,0.20319901,1.9490328,-6.4106226,0.20319901,1.9490328
1715850605.663942,-6.4106226,0.20319901,1.9490328,-6.4106226,0.20319901,1.9490328
1715850605.6660175,-6.4106226,0.20319901,1.9490328,-6.4106226,0.20319901,1.9490328
1715850605.6680415,-6.4106226,0.20319901,1.9490328,-6.4106226,0.20319901,1.9490328
1715850605.6700783,-6.4106226,0.20319901,1.9490328,-6.4106226,0.20319901,1.9490328
1715850605.6725333,-5.797031,0.0050600017,1.7072179,-5.797031,0.0050600017,1.7072179
1715850605.6747742,-5.797031,0.0050600017,1.7072179,-5.797031,0.0050600017,1.7072179
1715850605.6768756,-5.797031,0.0050600017,1.7072179,-5.797031,0.0050600017,1.7072179
1715850605.6789117,-5.797031,0.0050600017,1.7072179,-5.797031,0.0050600017,1.7072179
1715850605.680986,-5.797031,0.0050600017,1.7072179,-5.797031,0.0050600017,1.7072179
1715850605.6834738,-4.8042054,-0.03542001,1.4110746,-4.8042054,-0.03542001,1.4110746
1715850605.6856644,-4.8042054,-0.03542001,1.4110746,-4.8042054,-0.03542001,1.4110746
1715850605.687735,-4.8042054,-0.03542001,1.4110746,-4.8042054,-0.03542001,1.4110746
1715850605.6898854,-4.8042054,-0.03542001,1.4110746,-4.8042054,-0.03542001,1.4110746
1715850605.6925497,-3.4459944,0.5834981,1.7349148,-3.4459944,0.5834981,1.7349148
1715850605.6947145,-3.4459944,0.5834981,1.7349148,-3.4459944,0.5834981,1.7349148
1715850605.6967726,-3.4459944,0.5834981,1.7349148,-3.4459944,0.5834981,1.7349148
1715850605.6987853,-3.4459944,0.5834981,1.7349148,-3.4459944,0.5834981,1.7349148
1715850605.7010763,-3.4459944,0.5834981,1.7349148,-3.4459944,0.5834981,1.7349148
1715850605.7031486,-3.4459944,0.5834981,1.7349148,-3.4459944,0.5834981,1.7349148
1715850605.7061286,-2.6140234,1.2503531,1.8403759,-2.6140234,1.2503531,1.8403759
1715850605.7082152,-2.6140234,1.2503531,1.8403759,-2.6140234,1.2503531,1.8403759
1715850605.7106593,-2.6140234,1.2503531,1.8403759,-2.6140234,1.2503531,1.8403759
1715850605.7129192,-2.256095,1.027713,1.4962958,-2.256095,1.027713,1.4962958
1715850605.7150571,-2.256095,1.027713,1.4962958,-2.256095,1.027713,1.4962958
1715850605.7171924,-2.256095,1.027713,1.4962958,-2.256095,1.027713,1.4962958
1715850605.7192802,-2.256095,1.027713,1.4962958,-2.256095,1.027713,1.4962958
1715850605.7213056,-2.256095,1.027713,1.4962958,-2.256095,1.027713,1.4962958
1715850605.7266247,-2.4915183,0.041278962,0.99455667,-2.4915183,0.041278962,0.99455667
1715850605.7311625,-2.4915183,0.041278962,0.99455667,-2.4915183,0.041278962,0.99455667
1715850605.7371988,-2.8164237,-0.6841655,0.62704074,-2.8164237,-0.6841655,0.62704074
1715850605.741487,-2.8164237,-0.6841655,0.62704074,-2.8164237,-0.6841655,0.62704074
1715850605.7478378,-3.173287,-0.9824393,0.26698166,-3.173287,-0.9824393,0.26698166
1715850605.7523594,-3.173287,-0.9824393,0.26698166,-3.173287,-0.9824393,0.26698166
1715850605.7558992,-3.0955226,-0.33156326,0.21265323,-3.0955226,-0.33156326,0.21265323
1715850605.7584398,-3.0955226,-0.33156326,0.21265323,-3.0955226,-0.33156326,0.21265323
1715850605.7609508,-3.0955226,-0.33156326,0.21265323,-3.0955226,-0.33156326,0.21265323
1715850605.7634275,-3.0955226,-0.33156326,0.21265323,-3.0955226,-0.33156326,0.21265323
1715850605.766098,-2.6300025,0.49188542,0.32983223,-2.6300025,0.49188542,0.32983223
1715850605.768607,-2.6300025,0.49188542,0.32983223,-2.6300025,0.49188542,0.32983223
1715850605.7712839,-2.6300025,0.49188542,0.32983223,-2.6300025,0.49188542,0.32983223
1715850605.7739673,-2.6300025,0.49188542,0.32983223,-2.6300025,0.49188542,0.32983223
1715850605.7765121,-2.6300025,0.49188542,0.32983223,-2.6300025,0.49188542,0.32983223
1715850605.7790418,-2.272074,0.69322026,0.40120488,-2.272074,0.69322026,0.40120488
1715850605.7816195,-2.272074,0.69322026,0.40120488,-2.272074,0.69322026,0.40120488
1715850605.7850811,-1.4816484,0.6942855,0.4416849,-1.4816484,0.6942855,0.4416849
1715850605.787753,-1.4816484,0.6942855,0.4416849,-1.4816484,0.6942855,0.4416849
1715850605.7904167,-1.4816484,0.6942855,0.4416849,-1.4816484,0.6942855,0.4416849
1715850605.7932544,-0.69228816,0.091346346,0.3213101,-0.69228816,0.091346346,0.3213101
1715850605.7958157,-0.69228816,0.091346346,0.3213101,-0.69228816,0.091346346,0.3213101
1715850605.7982953,-0.69228816,0.091346346,0.3213101,-0.69228816,0.091346346,0.3213101
1715850605.8007724,-0.69228816,0.091346346,0.3213101,-0.69228816,0.091346346,0.3213101
1715850605.80357,-0.33862063,-0.65327287,0.1284974,-0.33862063,-0.65327287,0.1284974
1715850605.8061774,-0.33862063,-0.65327287,0.1284974,-0.33862063,-0.65327287,0.1284974
1715850605.8093214,-0.33862063,-0.65327287,0.1284974,-0.33862063,-0.65327287,0.1284974
1715850605.8119864,-0.33862063,-0.65327287,0.1284974,-0.33862063,-0.65327287,0.1284974
1715850605.8146782,0.13861741,-0.72358024,-0.043010015,0.13861741,-0.72358024,-0.043010015
1715850605.8171995,0.13861741,-0.72358024,-0.043010015,0.13861741,-0.72358024,-0.043010015
1715850605.8196554,0.13861741,-0.72358024,-0.043010015,0.13861741,-0.72358024,-0.043010015
1715850605.822207,0.13861741,-0.72358024,-0.043010015,0.13861741,-0.72358024,-0.043010015
1715850605.8248606,0.13861741,-0.72358024,-0.043010015,0.13861741,-0.72358024,-0.043010015
1715850605.8273525,0.13861741,-0.72358024,-0.043010015,0.13861741,-0.72358024,-0.043010015
1715850605.829986,0.13861741,-0.72358024,-0.043010015,0.13861741,-0.72358024,-0.043010015
1715850605.8324847,0.13861741,-0.72358024,-0.043010015,0.13861741,-0.72358024,-0.043010015
1715850605.8367617,0.95780504,0.8178561,-0.46272385,0.95780504,0.8178561,-0.46272385
1715850605.8395195,0.95780504,0.8178561,-0.46272385,0.95780504,0.8178561,-0.46272385
1715850605.8425028,1.4339778,1.4271868,-0.96978927,1.4339778,1.4271868,-0.96978927
1715850605.8450584,1.4339778,1.4271868,-0.96978927,1.4339778,1.4271868,-0.96978927
1715850605.8477786,1.4339778,1.4271868,-0.96978927,1.4339778,1.4271868,-0.96978927
1715850605.8503082,1.4339778,1.4271868,-0.96978927,1.4339778,1.4271868,-0.96978927
1715850605.8531675,2.1913803,1.7009596,-1.4747242,2.1913803,1.7009596,-1.4747242
1715850605.8556826,2.1913803,1.7009596,-1.4747242,2.1913803,1.7009596,-1.4747242
1715850605.85827,2.1913803,1.7009596,-1.4747242,2.1913803,1.7009596,-1.4747242
1715850605.860818,2.1913803,1.7009596,-1.4747242,2.1913803,1.7009596,-1.4747242
1715850605.8638372,2.1913803,1.7009596,-1.4747242,2.1913803,1.7009596,-1.4747242
1715850605.867648,2.6419866,1.6998943,-1.8560885,2.6419866,1.6998943,-1.8560885
1715850605.8701594,2.6419866,1.6998943,-1.8560885,2.6419866,1.6998943,-1.8560885
1715850605.873998,3.1426606,1.6881764,-2.0009644,3.1426606,1.6881764,-2.0009644
1715850605.8764873,3.1426606,1.6881764,-2.0009644,3.1426606,1.6881764,-2.0009644
1715850605.8801346,3.1426606,1.6881764,-2.0009644,3.1426606,1.6881764,-2.0009644
1715850605.884277,3.1426606,1.6881764,-2.0009644,3.1426606,1.6881764,-2.0009644
1715850605.8909037,4.09181,1.5102774,-2.3237393,4.09181,1.5102774,-2.3237393
1715850605.8972797,5.3743877,1.003212,-2.8553057,5.3743877,1.003212,-2.8553057
1715850605.9003124,5.3743877,1.003212,-2.8553057,5.3743877,1.003212,-2.8553057
1715850605.90389,5.647095,0.9606014,-2.9426572,5.647095,0.9606014,-2.9426572
1715850605.9066868,5.647095,0.9606014,-2.9426572,5.647095,0.9606014,-2.9426572
1715850605.9092422,5.647095,0.9606014,-2.9426572,5.647095,0.9606014,-2.9426572
1715850605.911677,5.647095,0.9606014,-2.9426572,5.647095,0.9606014,-2.9426572
1715850605.9144871,7.2696247,0.78163713,-3.1013815,7.2696247,0.78163713,-3.1013815
1715850605.9170852,7.2696247,0.78163713,-3.1013815,7.2696247,0.78163713,-3.1013815
1715850605.9196455,7.2696247,0.78163713,-3.1013815,7.2696247,0.78163713,-3.1013815
1715850605.924107,7.7127743,0.8072034,-3.001247,7.7127743,0.8072034,-3.001247
1715850605.9268143,7.7127743,0.8072034,-3.001247,7.7127743,0.8072034,-3.001247
1715850605.9293425,7.7127743,0.8072034,-3.001247,7.7127743,0.8072034,-3.001247
1715850605.9319067,7.7127743,0.8072034,-3.001247,7.7127743,0.8072034,-3.001247
1715850605.9345,7.7127743,0.8072034,-3.001247,7.7127743,0.8072034,-3.001247
1715850605.9374158,7.9716334,0.75074446,-2.8744805,7.9716334,0.75074446,-2.8744805
1715850605.9403565,7.9716334,0.75074446,-2.8744805,7.9716334,0.75074446,-2.8744805
1715850605.9440553,7.7713637,0.54408336,-2.8105648,7.7713637,0.54408336,-2.8105648
1715850605.9466426,7.7713637,0.54408336,-2.8105648,7.7713637,0.54408336,-2.8105648
1715850605.9491746,7.7713637,0.54408336,-2.8105648,7.7713637,0.54408336,-2.8105648
1715850605.951614,7.7713637,0.54408336,-2.8105648,7.7713637,0.54408336,-2.8105648
1715850605.9552987,7.0022435,0.4663191,-2.828674,7.0022435,0.4663191,-2.828674
1715850605.9578278,7.0022435,0.4663191,-2.828674,7.0022435,0.4663191,-2.828674
1715850605.9606023,7.0022435,0.4663191,-2.828674,7.0022435,0.4663191,-2.828674
1715850605.964127,6.398239,1.0362351,-2.9554405,6.398239,1.0362351,-2.9554405
1715850605.966626,6.398239,1.0362351,-2.9554405,6.398239,1.0362351,-2.9554405
1715850605.9690778,6.398239,1.0362351,-2.9554405,6.398239,1.0362351,-2.9554405
1715850605.9715612,6.398239,1.0362351,-2.9554405,6.398239,1.0362351,-2.9554405
1715850605.975297,5.8666725,1.5837805,-2.998051,5.8666725,1.5837805,-2.998051
1715850605.9780705,5.8666725,1.5837805,-2.998051,5.8666725,1.5837805,-2.998051
1715850605.9807599,5.8666725,1.5837805,-2.998051,5.8666725,1.5837805,-2.998051
1715850605.9832923,5.8666725,1.5837805,-2.998051,5.8666725,1.5837805,-2.998051
1715850605.985779,5.8666725,1.5837805,-2.998051,5.8666725,1.5837805,-2.998051
1715850605.98823,5.8666725,1.5837805,-2.998051,5.8666725,1.5837805,-2.998051
1715850605.990979,5.621662,1.759549,-2.9554405,5.621662,1.759549,-2.9554405
1715850605.9939048,5.310605,1.775528,-2.917091,5.310605,1.775528,-2.917091
1715850605.996713,5.310605,1.775528,-2.917091,5.310605,1.775528,-2.917091
1715850606.0000083,5.310605,1.775528,-2.917091,5.310605,1.775528,-2.917091
1715850606.0025747,5.310605,1.775528,-2.917091,5.310605,1.775528,-2.917091
1715850606.0054238,5.245624,1.3909678,-2.885133,5.245624,1.3909678,-2.885133
1715850606.0082176,5.245624,1.3909678,-2.885133,5.245624,1.3909678,-2.885133
1715850606.010802,5.245624,1.3909678,-2.885133,5.245624,1.3909678,-2.885133
1715850606.0134025,5.245624,1.3909678,-2.885133,5.245624,1.3909678,-2.885133
1715850606.0159612,5.245624,1.3909678,-2.885133,5.245624,1.3909678,-2.885133
1715850606.0185757,5.245624,1.3909678,-2.885133,5.245624,1.3909678,-2.885133
1715850606.0211637,5.245624,1.3909678,-2.885133,5.245624,1.3909678,-2.885133
1715850606.0240726,5.7921042,0.06897581,-2.3248045,5.7921042,0.06897581,-2.3248045
1715850606.0279431,5.956155,-0.0055926335,-2.306695,5.956155,-0.0055926335,-2.306695
1715850606.0304286,5.956155,-0.0055926335,-2.306695,5.956155,-0.0055926335,-2.306695
1715850606.032826,5.956155,-0.0055926335,-2.306695,5.956155,-0.0055926335,-2.306695
1715850606.0356407,5.956155,-0.0055926335,-2.306695,5.956155,-0.0055926335,-2.306695
1715850606.0382266,5.956155,-0.0055926335,-2.306695,5.956155,-0.0055926335,-2.306695
1715850606.0421803,6.2586894,-0.13875057,-2.6039035,6.2586894,-0.13875057,-2.6039035
1715850606.0461376,6.6752076,-0.41358855,-2.7082994,6.6752076,-0.41358855,-2.7082994
1715850606.0487313,6.6752076,-0.41358855,-2.7082994,6.6752076,-0.41358855,-2.7082994
1715850606.0514386,6.6752076,-0.41358855,-2.7082994,6.6752076,-0.41358855,-2.7082994
1715850606.0540538,6.6752076,-0.41358855,-2.7082994,6.6752076,-0.41358855,-2.7082994
1715850606.056786,6.6752076,-0.41358855,-2.7082994,6.6752076,-0.41358855,-2.7082994
1715850606.0594966,6.9255443,-0.61492336,-2.6933856,6.9255443,-0.61492336,-2.6933856
1715850606.0619712,6.9255443,-0.61492336,-2.6933856,6.9255443,-0.61492336,-2.6933856
1715850606.0648558,7.5806813,-1.5140058,-2.8308046,7.5806813,-1.5140058,-2.8308046
1715850606.067307,7.5806813,-1.5140058,-2.8308046,7.5806813,-1.5140058,-2.8308046
1715850606.0699005,7.5806813,-1.5140058,-2.8308046,7.5806813,-1.5140058,-2.8308046
1715850606.074632,7.7264895,-2.1030965,-3.07475,7.7264895,-2.1030965,-3.07475
1715850606.0773826,7.7264895,-2.1030965,-3.07475,7.7264895,-2.1030965,-3.07475
1715850606.0798626,7.7264895,-2.1030965,-3.07475,7.7264895,-2.1030965,-3.07475
1715850606.0823507,7.7264895,-2.1030965,-3.07475,7.7264895,-2.1030965,-3.07475
1715850606.0848951,7.7264895,-2.1030965,-3.07475,7.7264895,-2.1030965,-3.07475
1715850606.0873132,7.7264895,-2.1030965,-3.07475,7.7264895,-2.1030965,-3.07475
1715850606.0914595,7.8127756,-2.880739,-3.6436007,7.8127756,-2.880739,-3.6436007
1715850606.1004043,7.643399,-3.3686297,-4.2689104,7.643399,-3.3686297,-4.2689104
1715850606.1039367,7.643399,-3.3686297,-4.2689104,7.643399,-3.3686297,-4.2689104
1715850606.1084533,7.3866706,-3.4314802,-4.729104,7.3866706,-3.4314802,-4.729104
1715850606.1111283,7.3866706,-3.4314802,-4.729104,7.3866706,-3.4314802,-4.729104
1715850606.1145666,6.9701524,-3.0927262,-5.179711,6.9701524,-3.0927262,-5.179711
1715850606.1168458,6.9701524,-3.0927262,-5.179711,6.9701524,-3.0927262,-5.179711
1715850606.1188765,6.9701524,-3.0927262,-5.179711,6.9701524,-3.0927262,-5.179711
1715850606.1208942,6.9701524,-3.0927262,-5.179711,6.9701524,-3.0927262,-5.179711
1715850606.122929,6.9701524,-3.0927262,-5.179711,6.9701524,-3.0927262,-5.179711
1715850606.1259785,6.528068,-2.562225,-5.419395,6.528068,-2.562225,-5.419395
1715850606.1299794,6.528068,-2.562225,-5.419395,6.528068,-2.562225,-5.419395
1715850606.1338868,6.0284595,-2.2117534,-5.4002204,6.0284595,-2.2117534,-5.4002204
1715850606.137103,6.0284595,-2.2117534,-5.4002204,6.0284595,-2.2117534,-5.4002204
1715850606.1396809,6.0284595,-2.2117534,-5.4002204,6.0284595,-2.2117534,-5.4002204
1715850606.142171,6.0284595,-2.2117534,-5.4002204,6.0284595,-2.2117534,-5.4002204
1715850606.1458263,5.8260593,-2.1915133,-5.245757,5.8260593,-2.1915133,-5.245757
1715850606.1482322,5.8260593,-2.1915133,-5.245757,5.8260593,-2.1915133,-5.245757
1715850606.1504781,5.8260593,-2.1915133,-5.245757,5.8260593,-2.1915133,-5.245757
1715850606.1527076,5.8260593,-2.1915133,-5.245757,5.8260593,-2.1915133,-5.245757
1715850606.1549046,5.8260593,-2.1915133,-5.245757,5.8260593,-2.1915133,-5.245757
1715850606.1574318,5.658813,-2.2660818,-5.19782,5.658813,-2.2660818,-5.19782
1715850606.1598387,5.658813,-2.2660818,-5.19782,5.658813,-2.2660818,-5.19782
1715850606.1621017,5.658813,-2.2660818,-5.19782,5.658813,-2.2660818,-5.19782
1715850606.1647577,5.252948,-2.6122925,-4.9368305,5.252948,-2.6122925,-4.9368305
1715850606.1670334,5.252948,-2.6122925,-4.9368305,5.252948,-2.6122925,-4.9368305
1715850606.169105,5.252948,-2.6122925,-4.9368305,5.252948,-2.6122925,-4.9368305
1715850606.1711376,5.252948,-2.6122925,-4.9368305,5.252948,-2.6122925,-4.9368305
1715850606.173387,5.1155286,-2.8583684,-4.4265695,5.1155286,-2.8583684,-4.4265695
1715850606.1755216,5.1155286,-2.8583684,-4.4265695,5.1155286,-2.8583684,-4.4265695
1715850606.1776404,5.1155286,-2.8583684,-4.4265695,5.1155286,-2.8583684,-4.4265695
1715850606.1796632,5.1155286,-2.8583684,-4.4265695,5.1155286,-2.8583684,-4.4265695
1715850606.181698,5.1155286,-2.8583684,-4.4265695,5.1155286,-2.8583684,-4.4265695
1715850606.1850624,5.0942235,-2.7454505,-4.3306956,5.0942235,-2.7454505,-4.3306956
1715850606.1872532,5.0942235,-2.7454505,-4.3306956,5.0942235,-2.7454505,-4.3306956
1715850606.1893663,5.0942235,-2.7454505,-4.3306956,5.0942235,-2.7454505,-4.3306956
1715850606.191383,5.0942235,-2.7454505,-4.3306956,5.0942235,-2.7454505,-4.3306956
1715850606.1936514,5.064396,-2.3054967,-4.541618,5.064396,-2.3054967,-4.541618
1715850606.1957505,5.064396,-2.3054967,-4.541618,5.064396,-2.3054967,-4.541618
1715850606.1979232,5.064396,-2.3054967,-4.541618,5.064396,-2.3054967,-4.541618
1715850606.2003949,5.064396,-2.3054967,-4.541618,5.064396,-2.3054967,-4.541618
1715850606.2025514,5.064396,-2.3054967,-4.541618,5.064396,-2.3054967,-4.541618
1715850606.2046287,5.064396,-2.3054967,-4.541618,5.064396,-2.3054967,-4.541618
1715850606.2067666,4.971718,-1.5257237,-4.9730496,4.971718,-1.5257237,-4.9730496
1715850606.2088635,4.971718,-1.5257237,-4.9730496,4.971718,-1.5257237,-4.9730496
1715850606.210906,4.971718,-1.5257237,-4.9730496,4.971718,-1.5257237,-4.9730496
1715850606.2130337,4.3794317,-0.72144973,-5.092359,4.3794317,-0.72144973,-5.092359
1715850606.2150452,4.3794317,-0.72144973,-5.092359,4.3794317,-0.72144973,-5.092359
1715850606.2171535,4.3794317,-0.72144973,-5.092359,4.3794317,-0.72144973,-5.092359
1715850606.2193296,4.3794317,-0.72144973,-5.092359,4.3794317,-0.72144973,-5.092359
1715850606.2217174,4.3794317,-0.72144973,-5.092359,4.3794317,-0.72144973,-5.092359
1715850606.223882,3.5549176,-0.3624559,-4.799412,3.5549176,-0.3624559,-4.799412
1715850606.2260242,3.5549176,-0.3624559,-4.799412,3.5549176,-0.3624559,-4.799412
1715850606.2298703,3.5549176,-0.3624559,-4.799412,3.5549176,-0.3624559,-4.799412
1715850606.235569,1.9378475,0.13182636,-3.9418745,1.9378475,0.13182636,-3.9418745
